STUDYID,USUBJID,SUBJID,SITEID,COUNTRY,AGE,AGEU,AGEGR1,AGEGR1N,AGEGR9,AGEGR9N,SEX,RACE,ETHNIC,ARM,ACTARM,ARMCD,ACTARMCD,TRT01P,TRT01PN,TRT01A,TRT01AN,RFSTDTC,RFSTDT,RFENDTC,RFENDDT,RFXSTDTC,RFXSTDT,RFXENDTC,RFXENDT,RFICDTC,RFICDT,TRTSDTM,TRTSTMF,TRTEDTM,TRTETMF,TRTSDT,TRTEDT,TRTDURD,EOSSTT,EOSDT,DCSREAS,DTHFL,DTHDTC,DTHDT,SAFFL,ITTFL,LSTAVLDT,DMDTC,DMDY
CDISCPILOT01,01-701-1015,1015,701,USA,63,YEARS,<65,1,>50,3,F,WHITE,HISPANIC OR LATINO,Placebo,Placebo,Pbo,Pbo,Placebo,0,Placebo,0,2014-01-02,2014-01-02,2014-07-02,2014-07-02,2014-01-02,2014-01-02,2014-07-02,2014-07-02,NA,NA,2014-01-02T00:00:00Z,H,2014-07-02T23:59:59Z,H,2014-01-02,2014-07-02,182,COMPLETED,2014-07-02,NA,NA,NA,NA,Y,Y,2014-07-02,2013-12-26,-7
CDISCPILOT01,01-701-1023,1023,701,USA,64,YEARS,<65,1,>50,3,M,WHITE,HISPANIC OR LATINO,Placebo,Placebo,Pbo,Pbo,Placebo,0,Placebo,0,2012-08-05,2012-08-05,2012-09-02,2012-09-02,2012-08-05,2012-08-05,2012-09-01,2012-09-01,NA,NA,2012-08-05T00:00:00Z,H,2012-09-01T23:59:59Z,H,2012-08-05,2012-09-01,28,DISCONTINUED,2012-09-02,ADVERSE EVENT,NA,NA,NA,Y,Y,2013-02-18,2012-07-22,-14
CDISCPILOT01,01-701-1028,1028,701,USA,71,YEARS,>=65,2,>50,3,M,WHITE,NOT HISPANIC OR LATINO,Xanomeline High Dose,Xanomeline High Dose,Xan_Hi,Xan_Hi,Xanomeline High Dose,81,Xanomeline High Dose,81,2013-07-19,2013-07-19,2014-01-14,2014-01-14,2013-07-19,2013-07-19,2014-01-14,2014-01-14,NA,NA,2013-07-19T00:00:00Z,H,2014-01-14T23:59:59Z,H,2013-07-19,2014-01-14,180,COMPLETED,2014-01-14,NA,NA,NA,NA,Y,Y,2014-01-14,2013-07-11,-8
CDISCPILOT01,01-701-1033,1033,701,USA,74,YEARS,>=65,2,>50,3,M,WHITE,NOT HISPANIC OR LATINO,Xanomeline Low Dose,Xanomeline Low Dose,Xan_Lo,Xan_Lo,Xanomeline Low Dose,54,Xanomeline Low Dose,54,2014-03-18,2014-03-18,2014-04-14,2014-04-14,2014-03-18,2014-03-18,2014-03-31,2014-03-31,NA,NA,2014-03-18T00:00:00Z,H,2014-03-31T23:59:59Z,H,2014-03-18,2014-03-31,14,DISCONTINUED,2014-04-14,STUDY TERMINATED BY SPONSOR,NA,NA,NA,Y,Y,2014-09-15,2014-03-10,-8
CDISCPILOT01,01-701-1034,1034,701,USA,77,YEARS,>=65,2,>50,3,F,WHITE,NOT HISPANIC OR LATINO,Xanomeline High Dose,Xanomeline High Dose,Xan_Hi,Xan_Hi,Xanomeline High Dose,81,Xanomeline High Dose,81,2014-07-01,2014-07-01,2014-12-30,2014-12-30,2014-07-01,2014-07-01,2014-12-30,2014-12-30,NA,NA,2014-07-01T00:00:00Z,H,2014-12-30T23:59:59Z,H,2014-07-01,2014-12-30,183,COMPLETED,2014-12-30,NA,NA,NA,NA,Y,Y,2014-12-30,2014-06-24,-7
CDISCPILOT01,01-701-1047,1047,701,USA,85,YEARS,>=65,2,>50,3,F,WHITE,NOT HISPANIC OR LATINO,Placebo,Placebo,Pbo,Pbo,Placebo,0,Placebo,0,2013-02-12,2013-02-12,2013-03-29,2013-03-29,2013-02-12,2013-02-12,2013-03-09,2013-03-09,NA,NA,2013-02-12T00:00:00Z,H,2013-03-09T23:59:59Z,H,2013-02-12,2013-03-09,26,DISCONTINUED,2013-03-29,ADVERSE EVENT,NA,NA,NA,Y,Y,2013-07-28,2013-01-22,-21
CDISCPILOT01,01-701-1057,1057,701,USA,59,YEARS,<65,1,>50,3,F,WHITE,HISPANIC OR LATINO,Screen Failure,Screen Failure,Scrnfail,Scrnfail,Screen Failure,NA,Screen Failure,NA,NA,NA,NA,NA,NA,NA,NA,NA,NA,NA,NA,NA,NA,NA,NA,NA,NA,ONGOING,NA,NA,NA,NA,NA,N,N,2013-12-20,2013-12-20,NA
CDISCPILOT01,01-701-1097,1097,701,USA,68,YEARS,>=65,2,>50,3,M,WHITE,NOT HISPANIC OR LATINO,Xanomeline Low Dose,Xanomeline Low Dose,Xan_Lo,Xan_Lo,Xanomeline Low Dose,54,Xanomeline Low Dose,54,2014-01-01,2014-01-01,2014-07-09,2014-07-09,2014-01-01,2014-01-01,2014-07-09,2014-07-09,NA,NA,2014-01-01T00:00:00Z,H,2014-07-09T23:59:59Z,H,2014-01-01,2014-07-09,190,COMPLETED,2014-07-09,NA,NA,NA,NA,Y,Y,2014-07-09,2013-12-23,-9
CDISCPILOT01,01-701-1111,1111,701,USA,81,YEARS,>=65,2,>50,3,F,WHITE,NOT HISPANIC OR LATINO,Xanomeline Low Dose,Xanomeline Low Dose,Xan_Lo,Xan_Lo,Xanomeline Low Dose,54,Xanomeline Low Dose,54,2012-09-07,2012-09-07,2012-09-17,2012-09-17,2012-09-07,2012-09-07,2012-09-16,2012-09-16,NA,NA,2012-09-07T00:00:00Z,H,2012-09-16T23:59:59Z,H,2012-09-07,2012-09-16,10,DISCONTINUED,2012-09-17,ADVERSE EVENT,NA,NA,NA,Y,Y,2013-02-22,2012-08-25,-13
CDISCPILOT01,01-701-1115,1115,701,USA,84,YEARS,>=65,2,>50,3,M,WHITE,NOT HISPANIC OR LATINO,Xanomeline Low Dose,Xanomeline Low Dose,Xan_Lo,Xan_Lo,Xanomeline Low Dose,54,Xanomeline Low Dose,54,2012-11-30,2012-11-30,2013-01-23,2013-01-23,2012-11-30,2012-11-30,2013-01-23,2013-01-23,NA,NA,2012-11-30T00:00:00Z,H,2013-01-23T23:59:59Z,H,2012-11-30,2013-01-23,55,DISCONTINUED,2013-01-23,ADVERSE EVENT,NA,NA,NA,Y,Y,2013-05-20,2012-11-23,-7
CDISCPILOT01,01-701-1118,1118,701,USA,52,YEARS,<65,1,>50,3,M,WHITE,NOT HISPANIC OR LATINO,Placebo,Placebo,Pbo,Pbo,Placebo,0,Placebo,0,2014-03-12,2014-03-12,2014-09-09,2014-09-09,2014-03-12,2014-03-12,2014-09-09,2014-09-09,NA,NA,2014-03-12T00:00:00Z,H,2014-09-09T23:59:59Z,H,2014-03-12,2014-09-09,182,COMPLETED,2014-09-09,NA,NA,NA,NA,Y,Y,2014-09-09,2014-02-27,-13
CDISCPILOT01,01-701-1130,1130,701,USA,84,YEARS,>=65,2,>50,3,M,WHITE,NOT HISPANIC OR LATINO,Placebo,Placebo,Pbo,Pbo,Placebo,0,Placebo,0,2014-02-15,2014-02-15,2014-08-16,2014-08-16,2014-02-15,2014-02-15,2014-08-16,2014-08-16,NA,NA,2014-02-15T00:00:00Z,H,2014-08-16T23:59:59Z,H,2014-02-15,2014-08-16,183,COMPLETED,2014-08-16,NA,NA,NA,NA,Y,Y,2014-08-16,2014-02-09,-6
CDISCPILOT01,01-701-1133,1133,701,USA,81,YEARS,>=65,2,>50,3,F,WHITE,NOT HISPANIC OR LATINO,Xanomeline High Dose,Xanomeline High Dose,Xan_Hi,Xan_Hi,Xanomeline High Dose,81,Xanomeline High Dose,81,2012-10-28,2012-10-28,2013-04-29,2013-04-29,2012-10-28,2012-10-28,2013-04-28,2013-04-28,NA,NA,2012-10-28T00:00:00Z,H,2013-04-28T23:59:59Z,H,2012-10-28,2013-04-28,183,COMPLETED,2013-04-29,NA,NA,NA,NA,Y,Y,2013-04-29,2012-10-23,-5
CDISCPILOT01,01-701-1145,1145,701,USA,57,YEARS,<65,1,>50,3,F,WHITE,NOT HISPANIC OR LATINO,Screen Failure,Screen Failure,Scrnfail,Scrnfail,Screen Failure,NA,Screen Failure,NA,NA,NA,NA,NA,NA,NA,NA,NA,NA,NA,NA,NA,NA,NA,NA,NA,NA,ONGOING,NA,NA,NA,NA,NA,N,N,2013-09-05,2013-09-05,NA
CDISCPILOT01,01-701-1146,1146,701,USA,75,YEARS,>=65,2,>50,3,F,WHITE,NOT HISPANIC OR LATINO,Xanomeline High Dose,Xanomeline High Dose,Xan_Hi,Xan_Hi,Xanomeline High Dose,81,Xanomeline High Dose,81,2013-05-20,2013-05-20,2013-06-30,2013-06-30,2013-05-20,2013-05-20,2013-06-26,2013-06-26,NA,NA,2013-05-20T00:00:00Z,H,2013-06-26T23:59:59Z,H,2013-05-20,2013-06-26,38,DISCONTINUED,2013-06-30,ADVERSE EVENT,NA,NA,NA,Y,Y,2013-06-30,2013-05-07,-13
CDISCPILOT01,01-701-1148,1148,701,USA,57,YEARS,<65,1,>50,3,M,WHITE,NOT HISPANIC OR LATINO,Xanomeline High Dose,Xanomeline High Dose,Xan_Hi,Xan_Hi,Xanomeline High Dose,81,Xanomeline High Dose,81,2013-08-23,2013-08-23,2014-02-20,2014-02-20,2013-08-23,2013-08-23,2014-02-20,2014-02-20,NA,NA,2013-08-23T00:00:00Z,H,2014-02-20T23:59:59Z,H,2013-08-23,2014-02-20,182,COMPLETED,2014-02-20,NA,NA,NA,NA,Y,Y,2014-02-20,2013-08-14,-9
CDISCPILOT01,01-701-1153,1153,701,USA,79,YEARS,>=65,2,>50,3,F,WHITE,NOT HISPANIC OR LATINO,Placebo,Placebo,Pbo,Pbo,Placebo,0,Placebo,0,2013-09-23,2013-09-23,2014-04-01,2014-04-01,2013-09-23,2013-09-23,2014-03-16,2014-03-16,NA,NA,2013-09-23T00:00:00Z,H,2014-03-16T23:59:59Z,H,2013-09-23,2014-03-16,175,COMPLETED,2014-04-01,NA,NA,NA,NA,Y,Y,2014-04-01,2013-09-06,-17
CDISCPILOT01,01-701-1162,1162,701,USA,82,YEARS,>=65,2,>50,3,F,WHITE,NOT HISPANIC OR LATINO,Screen Failure,Screen Failure,Scrnfail,Scrnfail,Screen Failure,NA,Screen Failure,NA,NA,NA,NA,NA,NA,NA,NA,NA,NA,NA,NA,NA,NA,NA,NA,NA,NA,ONGOING,NA,NA,NA,NA,NA,N,N,2013-04-18,2013-04-18,NA
CDISCPILOT01,01-701-1176,1176,701,USA,62,YEARS,<65,1,>50,3,F,AMERICAN INDIAN OR ALASKA NATIVE,NOT HISPANIC OR LATINO,Screen Failure,Screen Failure,Scrnfail,Scrnfail,Screen Failure,NA,Screen Failure,NA,NA,NA,NA,NA,NA,NA,NA,NA,NA,NA,NA,NA,NA,NA,NA,NA,NA,ONGOING,NA,NA,NA,NA,NA,N,N,2012-09-30,2012-09-30,NA
CDISCPILOT01,01-701-1180,1180,701,USA,56,YEARS,<65,1,>50,3,M,WHITE,NOT HISPANIC OR LATINO,Xanomeline High Dose,Xanomeline High Dose,Xan_Hi,Xan_Hi,Xanomeline High Dose,81,Xanomeline High Dose,81,2013-02-12,2013-02-12,2013-03-23,2013-03-23,2013-02-12,2013-02-12,2013-03-18,2013-03-18,NA,NA,2013-02-12T00:00:00Z,H,2013-03-18T23:59:59Z,H,2013-02-12,2013-03-18,35,DISCONTINUED,2013-03-23,ADVERSE EVENT,NA,NA,NA,Y,Y,2013-03-23,2013-01-28,-15
CDISCPILOT01,01-701-1181,1181,701,USA,79,YEARS,>=65,2,>50,3,F,WHITE,NOT HISPANIC OR LATINO,Xanomeline High Dose,Xanomeline Low Dose,Xan_Hi,Xan_Lo,Xanomeline High Dose,81,Xanomeline Low Dose,54,2013-12-05,2013-12-05,2013-12-12,2013-12-12,2013-12-05,2013-12-05,2013-12-09,2013-12-09,NA,NA,2013-12-05T00:00:00Z,H,2013-12-09T23:59:59Z,H,2013-12-05,2013-12-09,5,DISCONTINUED,2013-12-12,ADVERSE EVENT,NA,NA,NA,Y,Y,2014-05-23,2013-11-26,-9
CDISCPILOT01,01-701-1188,1188,701,USA,71,YEARS,>=65,2,>50,3,M,WHITE,NOT HISPANIC OR LATINO,Xanomeline Low Dose,Xanomeline Low Dose,Xan_Lo,Xan_Lo,Xanomeline Low Dose,54,Xanomeline Low Dose,54,2013-02-15,2013-02-15,2013-03-25,2013-03-25,2013-02-15,2013-02-15,2013-03-24,2013-03-24,NA,NA,2013-02-15T00:00:00Z,H,2013-03-24T23:59:59Z,H,2013-02-15,2013-03-24,38,DISCONTINUED,2013-03-25,ADVERSE EVENT,NA,NA,NA,Y,Y,2013-08-04,2013-02-03,-12
CDISCPILOT01,01-701-1192,1192,701,USA,80,YEARS,>=65,2,>50,3,F,WHITE,NOT HISPANIC OR LATINO,Xanomeline Low Dose,Xanomeline Low Dose,Xan_Lo,Xan_Lo,Xanomeline Low Dose,54,Xanomeline Low Dose,54,2012-07-22,2012-07-22,2013-01-20,2013-01-20,2012-07-22,2012-07-22,2013-01-20,2013-01-20,NA,NA,2012-07-22T00:00:00Z,H,2013-01-20T23:59:59Z,H,2012-07-22,2013-01-20,183,COMPLETED,2013-01-20,NA,NA,NA,NA,Y,Y,2013-01-20,2012-07-08,-14
CDISCPILOT01,01-701-1203,1203,701,USA,81,YEARS,>=65,2,>50,3,F,BLACK OR AFRICAN AMERICAN,NOT HISPANIC OR LATINO,Placebo,Placebo,Pbo,Pbo,Placebo,0,Placebo,0,2013-02-02,2013-02-02,2013-08-03,2013-08-03,2013-02-02,2013-02-02,2013-08-03,2013-08-03,NA,NA,2013-02-02T00:00:00Z,H,2013-08-03T23:59:59Z,H,2013-02-02,2013-08-03,183,COMPLETED,2013-08-03,NA,NA,NA,NA,Y,Y,2013-08-03,2013-01-25,-8
CDISCPILOT01,01-701-1211,1211,701,USA,76,YEARS,>=65,2,>50,3,F,WHITE,NOT HISPANIC OR LATINO,Xanomeline Low Dose,Xanomeline Low Dose,Xan_Lo,Xan_Lo,Xanomeline Low Dose,54,Xanomeline Low Dose,54,2012-11-15,2012-11-15,2013-01-14,2013-01-14,2012-11-15,2012-11-15,2013-01-12,2013-01-12,NA,NA,2012-11-15T00:00:00Z,H,2013-01-12T23:59:59Z,H,2012-11-15,2013-01-12,59,DISCONTINUED,2013-01-14,DEATH,Y,2013-01-14,2013-01-14,Y,Y,2013-01-14,2012-10-30,-16
CDISCPILOT01,01-701-1234,1234,701,USA,69,YEARS,>=65,2,>50,3,M,WHITE,NOT HISPANIC OR LATINO,Placebo,Placebo,Pbo,Pbo,Placebo,0,Placebo,0,2013-03-30,2013-03-30,2013-09-22,2013-09-22,2013-03-30,2013-03-30,2013-09-22,2013-09-22,NA,NA,2013-03-30T00:00:00Z,H,2013-09-22T23:59:59Z,H,2013-03-30,2013-09-22,177,COMPLETED,2013-09-22,NA,NA,NA,NA,Y,Y,2013-09-22,2013-03-20,-10
CDISCPILOT01,01-701-1239,1239,701,USA,56,YEARS,<65,1,>50,3,M,WHITE,HISPANIC OR LATINO,Xanomeline High Dose,Xanomeline High Dose,Xan_Hi,Xan_Hi,Xanomeline High Dose,81,Xanomeline High Dose,81,2014-01-11,2014-01-11,2014-07-11,2014-07-11,2014-01-11,2014-01-11,2014-07-10,2014-07-10,NA,NA,2014-01-11T00:00:00Z,H,2014-07-10T23:59:59Z,H,2014-01-11,2014-07-10,181,COMPLETED,2014-07-11,NA,NA,NA,NA,Y,Y,2014-07-11,2013-12-28,-14
CDISCPILOT01,01-701-1240,1240,701,USA,57,YEARS,<65,1,>50,3,F,BLACK OR AFRICAN AMERICAN,NOT HISPANIC OR LATINO,Screen Failure,Screen Failure,Scrnfail,Scrnfail,Screen Failure,NA,Screen Failure,NA,NA,NA,NA,NA,NA,NA,NA,NA,NA,NA,NA,NA,NA,NA,NA,NA,NA,ONGOING,NA,NA,NA,NA,NA,N,N,2013-09-22,2013-09-22,NA
CDISCPILOT01,01-701-1275,1275,701,USA,61,YEARS,<65,1,>50,3,M,AMERICAN INDIAN OR ALASKA NATIVE,NOT HISPANIC OR LATINO,Xanomeline High Dose,Xanomeline High Dose,Xan_Hi,Xan_Hi,Xanomeline High Dose,81,Xanomeline High Dose,81,2014-02-07,2014-02-07,2014-06-14,2014-06-14,2014-02-07,2014-02-07,2014-05-31,2014-05-31,NA,NA,2014-02-07T00:00:00Z,H,2014-05-31T23:59:59Z,H,2014-02-07,2014-05-31,114,DISCONTINUED,2014-06-14,WITHDRAWAL BY SUBJECT,NA,NA,NA,Y,Y,2014-06-14,2014-01-25,-13
CDISCPILOT01,01-701-1287,1287,701,USA,56,YEARS,<65,1,>50,3,F,WHITE,HISPANIC OR LATINO,Xanomeline High Dose,Xanomeline High Dose,Xan_Hi,Xan_Hi,Xanomeline High Dose,81,Xanomeline High Dose,81,2014-01-25,2014-01-25,2014-07-26,2014-07-26,2014-01-25,2014-01-25,2014-07-26,2014-07-26,NA,NA,2014-01-25T00:00:00Z,H,2014-07-26T23:59:59Z,H,2014-01-25,2014-07-26,183,COMPLETED,2014-07-26,NA,NA,NA,NA,Y,Y,2014-07-26,2014-01-17,-8
CDISCPILOT01,01-701-1294,1294,701,USA,67,YEARS,>=65,2,>50,3,M,WHITE,NOT HISPANIC OR LATINO,Xanomeline Low Dose,Xanomeline Low Dose,Xan_Lo,Xan_Lo,Xanomeline Low Dose,54,Xanomeline Low Dose,54,2013-03-24,2013-03-24,2013-06-14,2013-06-14,2013-03-24,2013-03-24,2013-06-14,2013-06-14,NA,NA,2013-03-24T00:00:00Z,H,2013-06-14T23:59:59Z,H,2013-03-24,2013-06-14,83,DISCONTINUED,2013-06-14,ADVERSE EVENT,NA,NA,NA,Y,Y,2013-10-08,2013-03-17,-7
CDISCPILOT01,01-701-1302,1302,701,USA,61,YEARS,<65,1,>50,3,M,WHITE,NOT HISPANIC OR LATINO,Xanomeline High Dose,Xanomeline High Dose,Xan_Hi,Xan_Hi,Xanomeline High Dose,81,Xanomeline High Dose,81,2013-08-29,2013-08-29,2013-11-05,2013-11-05,2013-08-29,2013-08-29,2013-11-05,2013-11-05,NA,NA,2013-08-29T00:00:00Z,H,2013-11-05T23:59:59Z,H,2013-08-29,2013-11-05,69,DISCONTINUED,2013-11-05,ADVERSE EVENT,NA,NA,NA,Y,Y,2014-02-13,2013-08-20,-9
CDISCPILOT01,01-701-1307,1307,701,USA,80,YEARS,>=65,2,>50,3,F,WHITE,NOT HISPANIC OR LATINO,Screen Failure,Screen Failure,Scrnfail,Scrnfail,Screen Failure,NA,Screen Failure,NA,NA,NA,NA,NA,NA,NA,NA,NA,NA,NA,NA,NA,NA,NA,NA,NA,NA,ONGOING,NA,NA,NA,NA,NA,N,N,2013-12-08,2013-12-08,NA
CDISCPILOT01,01-701-1317,1317,701,USA,68,YEARS,>=65,2,>50,3,M,WHITE,NOT HISPANIC OR LATINO,Xanomeline Low Dose,Xanomeline Low Dose,Xan_Lo,Xan_Lo,Xanomeline Low Dose,54,Xanomeline Low Dose,54,2014-05-22,2014-05-22,2014-11-20,2014-11-20,2014-05-22,2014-05-22,2014-11-20,2014-11-20,NA,NA,2014-05-22T00:00:00Z,H,2014-11-20T23:59:59Z,H,2014-05-22,2014-11-20,183,COMPLETED,2014-11-20,NA,NA,NA,NA,Y,Y,2014-11-20,2014-05-10,-12
CDISCPILOT01,01-701-1324,1324,701,USA,79,YEARS,>=65,2,>50,3,M,WHITE,NOT HISPANIC OR LATINO,Xanomeline Low Dose,Xanomeline Low Dose,Xan_Lo,Xan_Lo,Xanomeline Low Dose,54,Xanomeline Low Dose,54,2012-10-02,2012-10-02,2013-04-02,2013-04-02,2012-10-02,2012-10-02,2013-04-02,2013-04-02,NA,NA,2012-10-02T00:00:00Z,H,2013-04-02T23:59:59Z,H,2012-10-02,2013-04-02,183,COMPLETED,2013-04-02,NA,NA,NA,NA,Y,Y,2013-04-02,2012-09-16,-16
CDISCPILOT01,01-701-1341,1341,701,USA,51,YEARS,<65,1,>50,3,M,WHITE,NOT HISPANIC OR LATINO,Xanomeline Low Dose,Xanomeline Low Dose,Xan_Lo,Xan_Lo,Xanomeline Low Dose,54,Xanomeline Low Dose,54,2013-01-05,2013-01-05,2013-02-07,2013-02-07,2013-01-05,2013-01-05,2013-01-26,2013-01-26,NA,NA,2013-01-05T00:00:00Z,H,2013-01-26T23:59:59Z,H,2013-01-05,2013-01-26,22,DISCONTINUED,2013-02-07,ADVERSE EVENT,NA,NA,NA,Y,Y,2013-02-07,2012-12-22,-14
CDISCPILOT01,01-701-1345,1345,701,USA,63,YEARS,<65,1,>50,3,F,WHITE,NOT HISPANIC OR LATINO,Placebo,Placebo,Pbo,Pbo,Placebo,0,Placebo,0,2013-10-08,2013-10-08,2014-03-18,2014-03-18,2013-10-08,2013-10-08,2014-03-18,2014-03-18,NA,NA,2013-10-08T00:00:00Z,H,2014-03-18T23:59:59Z,H,2013-10-08,2014-03-18,162,DISCONTINUED,2014-03-18,STUDY TERMINATED BY SPONSOR,NA,NA,NA,Y,Y,2014-03-18,2013-10-01,-7
CDISCPILOT01,01-701-1356,1356,701,USA,54,YEARS,<65,1,>50,3,F,WHITE,HISPANIC OR LATINO,Screen Failure,Screen Failure,Scrnfail,Scrnfail,Screen Failure,NA,Screen Failure,NA,NA,NA,NA,NA,NA,NA,NA,NA,NA,NA,NA,NA,NA,NA,NA,NA,NA,ONGOING,NA,NA,NA,NA,NA,N,N,2014-04-01,2014-04-01,NA
CDISCPILOT01,01-701-1360,1360,701,USA,67,YEARS,>=65,2,>50,3,M,WHITE,NOT HISPANIC OR LATINO,Xanomeline High Dose,Xanomeline Low Dose,Xan_Hi,Xan_Lo,Xanomeline High Dose,81,Xanomeline Low Dose,54,2013-07-31,2013-07-31,2013-08-14,2013-08-14,2013-07-31,2013-07-31,2013-08-05,2013-08-05,NA,NA,2013-07-31T00:00:00Z,H,2013-08-05T23:59:59Z,H,2013-07-31,2013-08-05,6,DISCONTINUED,2013-08-14,PHYSICIAN DECISION,NA,NA,NA,Y,Y,2014-02-11,2013-07-24,-7
CDISCPILOT01,01-701-1363,1363,701,USA,81,YEARS,>=65,2,>50,3,F,BLACK OR AFRICAN AMERICAN,NOT HISPANIC OR LATINO,Placebo,Placebo,Pbo,Pbo,Placebo,0,Placebo,0,2013-05-30,2013-05-30,2013-11-27,2013-11-27,2013-05-30,2013-05-30,2013-11-27,2013-11-27,NA,NA,2013-05-30T00:00:00Z,H,2013-11-27T23:59:59Z,H,2013-05-30,2013-11-27,182,COMPLETED,2013-11-27,NA,NA,NA,NA,Y,Y,2013-11-27,2013-05-20,-10
CDISCPILOT01,01-701-1369,1369,701,USA,74,YEARS,>=65,2,>50,3,M,WHITE,NOT HISPANIC OR LATINO,Screen Failure,Screen Failure,Scrnfail,Scrnfail,Screen Failure,NA,Screen Failure,NA,NA,NA,NA,NA,NA,NA,NA,NA,NA,NA,NA,NA,NA,NA,NA,NA,NA,ONGOING,NA,NA,NA,NA,NA,N,N,2013-09-18,2013-09-18,NA
CDISCPILOT01,01-701-1383,1383,701,USA,72,YEARS,>=65,2,>50,3,F,WHITE,NOT HISPANIC OR LATINO,Xanomeline High Dose,Xanomeline High Dose,Xan_Hi,Xan_Hi,Xanomeline High Dose,81,Xanomeline High Dose,81,2013-02-04,2013-02-04,2013-08-06,2013-08-06,2013-02-04,2013-02-04,2013-08-06,2013-08-06,NA,NA,2013-02-04T00:00:00Z,H,2013-08-06T23:59:59Z,H,2013-02-04,2013-08-06,184,COMPLETED,2013-08-06,NA,NA,NA,NA,Y,Y,2013-08-06,2013-01-22,-13
CDISCPILOT01,01-701-1386,1386,701,USA,71,YEARS,>=65,2,>50,3,M,WHITE,NOT HISPANIC OR LATINO,Screen Failure,Screen Failure,Scrnfail,Scrnfail,Screen Failure,NA,Screen Failure,NA,NA,NA,NA,NA,NA,NA,NA,NA,NA,NA,NA,NA,NA,NA,NA,NA,NA,ONGOING,NA,NA,NA,NA,NA,N,N,2013-12-28,2013-12-28,NA
CDISCPILOT01,01-701-1387,1387,701,USA,87,YEARS,>=65,2,>50,3,F,WHITE,NOT HISPANIC OR LATINO,Placebo,Placebo,Pbo,Pbo,Placebo,0,Placebo,0,2014-03-12,2014-03-12,2014-03-25,2014-03-25,2014-03-12,2014-03-12,2014-03-25,2014-03-25,NA,NA,2014-03-12T00:00:00Z,H,2014-03-25T23:59:59Z,H,2014-03-12,2014-03-25,14,DISCONTINUED,2014-03-25,PROTOCOL VIOLATION,NA,NA,NA,Y,Y,2014-08-27,2014-02-23,-17
CDISCPILOT01,01-701-1392,1392,701,USA,78,YEARS,>=65,2,>50,3,M,WHITE,NOT HISPANIC OR LATINO,Placebo,Placebo,Pbo,Pbo,Placebo,0,Placebo,0,2012-10-28,2012-10-28,2013-04-28,2013-04-28,2012-10-28,2012-10-28,2013-04-28,2013-04-28,NA,NA,2012-10-28T00:00:00Z,H,2013-04-28T23:59:59Z,H,2012-10-28,2013-04-28,183,COMPLETED,2013-04-28,NA,NA,NA,NA,Y,Y,2013-04-28,2012-10-17,-11
CDISCPILOT01,01-701-1411,1411,701,USA,76,YEARS,>=65,2,>50,3,M,BLACK OR AFRICAN AMERICAN,NOT HISPANIC OR LATINO,Screen Failure,Screen Failure,Scrnfail,Scrnfail,Screen Failure,NA,Screen Failure,NA,NA,NA,NA,NA,NA,NA,NA,NA,NA,NA,NA,NA,NA,NA,NA,NA,NA,ONGOING,NA,NA,NA,NA,NA,N,N,2012-11-14,2012-11-14,NA
CDISCPILOT01,01-701-1415,1415,701,USA,85,YEARS,>=65,2,>50,3,M,WHITE,NOT HISPANIC OR LATINO,Placebo,Placebo,Pbo,Pbo,Placebo,0,Placebo,0,2013-09-23,2013-09-23,2014-03-24,2014-03-24,2013-09-23,2013-09-23,2014-03-24,2014-03-24,NA,NA,2013-09-23T00:00:00Z,H,2014-03-24T23:59:59Z,H,2013-09-23,2014-03-24,183,COMPLETED,2014-03-24,NA,NA,NA,NA,Y,Y,2014-03-24,2013-09-15,-8
CDISCPILOT01,01-701-1429,1429,701,USA,84,YEARS,>=65,2,>50,3,F,WHITE,NOT HISPANIC OR LATINO,Xanomeline Low Dose,Xanomeline Low Dose,Xan_Lo,Xan_Lo,Xanomeline Low Dose,54,Xanomeline Low Dose,54,2013-03-19,2013-03-19,2013-04-30,2013-04-30,2013-03-19,2013-03-19,2013-04-30,2013-04-30,NA,NA,2013-03-19T00:00:00Z,H,2013-04-30T23:59:59Z,H,2013-03-19,2013-04-30,43,DISCONTINUED,2013-04-30,WITHDRAWAL BY SUBJECT,NA,NA,NA,Y,Y,2013-04-30,2013-02-25,-22
CDISCPILOT01,01-701-1440,1440,701,USA,70,YEARS,>=65,2,>50,3,M,WHITE,NOT HISPANIC OR LATINO,Placebo,Placebo,Pbo,Pbo,Placebo,0,Placebo,0,2013-08-08,2013-08-08,2014-02-05,2014-02-05,2013-08-08,2013-08-08,2014-02-05,2014-02-05,NA,NA,2013-08-08T00:00:00Z,H,2014-02-05T23:59:59Z,H,2013-08-08,2014-02-05,182,COMPLETED,2014-02-05,NA,NA,NA,NA,Y,Y,2014-02-05,2013-07-24,-15
CDISCPILOT01,01-701-1442,1442,701,USA,57,YEARS,<65,1,>50,3,F,BLACK OR AFRICAN AMERICAN,NOT HISPANIC OR LATINO,Xanomeline Low Dose,Xanomeline Low Dose,Xan_Lo,Xan_Lo,Xanomeline Low Dose,54,Xanomeline Low Dose,54,2013-10-26,2013-10-26,2014-04-26,2014-04-26,2013-10-26,2013-10-26,2014-04-26,2014-04-26,NA,NA,2013-10-26T00:00:00Z,H,2014-04-26T23:59:59Z,H,2013-10-26,2014-04-26,183,COMPLETED,2014-04-26,NA,NA,NA,NA,Y,Y,2014-04-26,2013-10-17,-9
CDISCPILOT01,01-701-1444,1444,701,USA,63,YEARS,<65,1,>50,3,M,WHITE,HISPANIC OR LATINO,Xanomeline High Dose,Xanomeline High Dose,Xan_Hi,Xan_Hi,Xanomeline High Dose,81,Xanomeline High Dose,81,2013-01-05,2013-01-05,2013-02-13,2013-02-13,2013-01-05,2013-01-05,2013-02-12,2013-02-12,NA,NA,2013-01-05T00:00:00Z,H,2013-02-12T23:59:59Z,H,2013-01-05,2013-02-12,39,DISCONTINUED,2013-02-13,ADVERSE EVENT,NA,NA,NA,Y,Y,2013-06-20,2012-12-31,-5
CDISCPILOT01,01-702-1082,1082,702,USA,84,YEARS,>=65,2,>50,3,F,WHITE,NOT HISPANIC OR LATINO,Xanomeline Low Dose,Xanomeline Low Dose,Xan_Lo,Xan_Lo,Xanomeline Low Dose,54,Xanomeline Low Dose,54,2013-07-26,2013-07-26,2013-11-17,2013-11-17,2013-07-26,2013-07-26,2013-10-13,2013-10-13,NA,NA,2013-07-26T00:00:00Z,H,2013-10-13T23:59:59Z,H,2013-07-26,2013-10-13,80,DISCONTINUED,2013-11-17,WITHDRAWAL BY SUBJECT,NA,NA,NA,Y,Y,2013-11-17,2013-07-03,-23
CDISCPILOT01,01-703-1042,1042,703,USA,64,YEARS,<65,1,>50,3,M,WHITE,NOT HISPANIC OR LATINO,Placebo,Placebo,Pbo,Pbo,Placebo,0,Placebo,0,2013-03-02,2013-03-02,2013-08-31,2013-08-31,2013-03-02,2013-03-02,2013-08-31,2013-08-31,NA,NA,2013-03-02T00:00:00Z,H,2013-08-31T23:59:59Z,H,2013-03-02,2013-08-31,183,COMPLETED,2013-08-31,NA,NA,NA,NA,Y,Y,2013-08-31,2013-02-23,-7
CDISCPILOT01,01-703-1076,1076,703,USA,69,YEARS,>=65,2,>50,3,M,WHITE,NOT HISPANIC OR LATINO,Xanomeline High Dose,Xanomeline High Dose,Xan_Hi,Xan_Hi,Xanomeline High Dose,81,Xanomeline High Dose,81,2013-10-25,2013-10-25,2013-12-24,2013-12-24,2013-10-25,2013-10-25,2013-12-24,2013-12-24,NA,NA,2013-10-25T00:00:00Z,H,2013-12-24T23:59:59Z,H,2013-10-25,2013-12-24,61,DISCONTINUED,2013-12-24,ADVERSE EVENT,NA,NA,NA,Y,Y,2013-12-24,2013-10-17,-8
CDISCPILOT01,01-703-1086,1086,703,USA,71,YEARS,>=65,2,>50,3,M,WHITE,NOT HISPANIC OR LATINO,Xanomeline Low Dose,Xanomeline Low Dose,Xan_Lo,Xan_Lo,Xanomeline Low Dose,54,Xanomeline Low Dose,54,2012-09-02,2012-09-02,2012-12-24,2012-12-24,2012-09-02,2012-09-02,2012-12-04,2012-12-04,NA,NA,2012-09-02T00:00:00Z,H,2012-12-04T23:59:59Z,H,2012-09-02,2012-12-04,94,DISCONTINUED,2012-12-24,ADVERSE EVENT,NA,NA,NA,Y,Y,2013-03-26,2012-08-22,-11
CDISCPILOT01,01-703-1096,1096,703,USA,81,YEARS,>=65,2,>50,3,F,WHITE,NOT HISPANIC OR LATINO,Placebo,Placebo,Pbo,Pbo,Placebo,0,Placebo,0,2013-01-25,2013-01-25,2013-03-29,2013-03-29,2013-01-25,2013-01-25,2013-03-16,2013-03-16,NA,NA,2013-01-25T00:00:00Z,H,2013-03-16T23:59:59Z,H,2013-01-25,2013-03-16,51,DISCONTINUED,2013-03-29,LOST TO FOLLOW-UP,NA,NA,NA,Y,Y,2013-03-29,2012-12-19,-37
CDISCPILOT01,01-703-1100,1100,703,USA,84,YEARS,>=65,2,>50,3,F,WHITE,NOT HISPANIC OR LATINO,Placebo,Placebo,Pbo,Pbo,Placebo,0,Placebo,0,2013-03-13,2013-03-13,2013-09-14,2013-09-14,2013-03-13,2013-03-13,2013-09-14,2013-09-14,NA,NA,2013-03-13T00:00:00Z,H,2013-09-14T23:59:59Z,H,2013-03-13,2013-09-14,186,COMPLETED,2013-09-14,NA,NA,NA,NA,Y,Y,2013-09-14,2013-02-28,-13
CDISCPILOT01,01-703-1119,1119,703,USA,81,YEARS,>=65,2,>50,3,F,WHITE,NOT HISPANIC OR LATINO,Xanomeline Low Dose,Xanomeline Low Dose,Xan_Lo,Xan_Lo,Xanomeline Low Dose,54,Xanomeline Low Dose,54,2013-02-20,2013-02-20,2013-06-13,2013-06-13,2013-02-20,2013-02-20,2013-06-13,2013-06-13,NA,NA,2013-02-20T00:00:00Z,H,2013-06-13T23:59:59Z,H,2013-02-20,2013-06-13,114,DISCONTINUED,2013-06-13,ADVERSE EVENT,NA,NA,NA,Y,Y,2013-08-24,2013-02-02,-18
CDISCPILOT01,01-703-1175,1175,703,USA,75,YEARS,>=65,2,>50,3,M,WHITE,NOT HISPANIC OR LATINO,Placebo,Placebo,Pbo,Pbo,Placebo,0,Placebo,0,2013-12-20,2013-12-20,2013-12-31,2013-12-31,2013-12-20,2013-12-20,2013-12-26,2013-12-26,NA,NA,2013-12-20T00:00:00Z,H,2013-12-26T23:59:59Z,H,2013-12-20,2013-12-26,7,DISCONTINUED,2013-12-31,PROTOCOL VIOLATION,NA,NA,NA,Y,Y,2013-12-31,2013-12-13,-7
CDISCPILOT01,01-703-1182,1182,703,USA,84,YEARS,>=65,2,>50,3,M,WHITE,NOT HISPANIC OR LATINO,Xanomeline Low Dose,Xanomeline Low Dose,Xan_Lo,Xan_Lo,Xanomeline Low Dose,54,Xanomeline Low Dose,54,2013-10-17,2013-10-17,2013-12-12,2013-12-12,2013-10-17,2013-10-17,2013-12-11,2013-12-11,NA,NA,2013-10-17T00:00:00Z,H,2013-12-11T23:59:59Z,H,2013-10-17,2013-12-11,56,DISCONTINUED,2013-12-12,ADVERSE EVENT,NA,NA,NA,Y,Y,2013-12-12,2013-10-08,-9
CDISCPILOT01,01-703-1197,1197,703,USA,76,YEARS,>=65,2,>50,3,F,BLACK OR AFRICAN AMERICAN,NOT HISPANIC OR LATINO,Xanomeline Low Dose,Xanomeline Low Dose,Xan_Lo,Xan_Lo,Xanomeline Low Dose,54,Xanomeline Low Dose,54,2013-06-16,2013-06-16,2013-07-22,2013-07-22,2013-06-16,2013-06-16,2013-06-29,2013-06-29,NA,NA,2013-06-16T00:00:00Z,H,2013-06-29T23:59:59Z,H,2013-06-16,2013-06-29,14,DISCONTINUED,2013-07-22,WITHDRAWAL BY SUBJECT,NA,NA,NA,Y,Y,2013-07-22,2013-06-01,-15
CDISCPILOT01,01-703-1210,1210,703,USA,72,YEARS,>=65,2,>50,3,F,WHITE,NOT HISPANIC OR LATINO,Placebo,Placebo,Pbo,Pbo,Placebo,0,Placebo,0,2013-03-16,2013-03-16,2013-09-06,2013-09-06,2013-03-16,2013-03-16,2013-09-06,2013-09-06,NA,NA,2013-03-16T00:00:00Z,H,2013-09-06T23:59:59Z,H,2013-03-16,2013-09-06,175,COMPLETED,2013-09-06,NA,NA,NA,NA,Y,Y,2013-09-06,2013-03-08,-8
CDISCPILOT01,01-703-1258,1258,703,USA,78,YEARS,>=65,2,>50,3,F,WHITE,NOT HISPANIC OR LATINO,Xanomeline High Dose,Xanomeline High Dose,Xan_Hi,Xan_Hi,Xanomeline High Dose,81,Xanomeline High Dose,81,2012-07-20,2012-07-20,2013-01-21,2013-01-21,2012-07-20,2012-07-20,2013-01-11,2013-01-11,NA,NA,2012-07-20T00:00:00Z,H,2013-01-11T23:59:59Z,H,2012-07-20,2013-01-11,176,DISCONTINUED,2013-01-21,ADVERSE EVENT,NA,NA,NA,Y,Y,2013-01-21,2012-07-10,-10
CDISCPILOT01,01-703-1279,1279,703,USA,72,YEARS,>=65,2,>50,3,F,WHITE,NOT HISPANIC OR LATINO,Xanomeline Low Dose,Xanomeline Low Dose,Xan_Lo,Xan_Lo,Xanomeline Low Dose,54,Xanomeline Low Dose,54,2013-05-13,2013-05-13,2013-06-22,2013-06-22,2013-05-13,2013-05-13,2013-06-03,2013-06-03,NA,NA,2013-05-13T00:00:00Z,H,2013-06-03T23:59:59Z,H,2013-05-13,2013-06-03,22,DISCONTINUED,2013-06-22,WITHDRAWAL BY SUBJECT,NA,NA,NA,Y,Y,2013-06-22,2013-04-27,-16
CDISCPILOT01,01-703-1295,1295,703,USA,88,YEARS,>=65,2,>50,3,F,WHITE,NOT HISPANIC OR LATINO,Xanomeline High Dose,Xanomeline High Dose,Xan_Hi,Xan_Hi,Xanomeline High Dose,81,Xanomeline High Dose,81,2013-11-21,2013-11-21,2014-05-19,2014-05-19,2013-11-21,2013-11-21,2014-04-19,2014-04-19,NA,NA,2013-11-21T00:00:00Z,H,2014-04-19T23:59:59Z,H,2013-11-21,2014-04-19,150,DISCONTINUED,2014-05-19,WITHDRAWAL BY SUBJECT,NA,NA,NA,Y,Y,2014-05-19,2013-10-24,-28
CDISCPILOT01,01-703-1299,1299,703,USA,81,YEARS,>=65,2,>50,3,F,WHITE,NOT HISPANIC OR LATINO,Placebo,Placebo,Pbo,Pbo,Placebo,0,Placebo,0,2012-09-12,2012-09-12,2013-03-13,2013-03-13,2012-09-12,2012-09-12,2013-03-13,2013-03-13,NA,NA,2012-09-12T00:00:00Z,H,2013-03-13T23:59:59Z,H,2012-09-12,2013-03-13,183,COMPLETED,2013-03-13,NA,NA,NA,NA,Y,Y,2013-03-13,2012-09-07,-5
CDISCPILOT01,01-703-1335,1335,703,USA,67,YEARS,>=65,2,>50,3,F,BLACK OR AFRICAN AMERICAN,NOT HISPANIC OR LATINO,Xanomeline High Dose,Xanomeline High Dose,Xan_Hi,Xan_Hi,Xanomeline High Dose,81,Xanomeline High Dose,81,2014-03-17,2014-03-17,2014-05-24,2014-05-24,2014-03-17,2014-03-17,2014-05-07,2014-05-07,NA,NA,2014-03-17T00:00:00Z,H,2014-05-07T23:59:59Z,H,2014-03-17,2014-05-07,52,DISCONTINUED,2014-05-24,PROTOCOL VIOLATION,NA,NA,NA,Y,Y,2014-05-24,2014-02-28,-17
CDISCPILOT01,01-703-1379,1379,703,USA,81,YEARS,>=65,2,>50,3,F,BLACK OR AFRICAN AMERICAN,NOT HISPANIC OR LATINO,Xanomeline Low Dose,Xanomeline Low Dose,Xan_Lo,Xan_Lo,Xanomeline Low Dose,54,Xanomeline Low Dose,54,2013-09-22,2013-09-22,2014-03-21,2014-03-21,2013-09-22,2013-09-22,2014-03-21,2014-03-21,NA,NA,2013-09-22T00:00:00Z,H,2014-03-21T23:59:59Z,H,2013-09-22,2014-03-21,181,COMPLETED,2014-03-21,NA,NA,NA,NA,Y,Y,2014-03-21,2013-09-12,-10
CDISCPILOT01,01-703-1396,1396,703,USA,84,YEARS,>=65,2,>50,3,M,ASIAN,NOT HISPANIC OR LATINO,Screen Failure,Screen Failure,Scrnfail,Scrnfail,Screen Failure,NA,Screen Failure,NA,NA,NA,NA,NA,NA,NA,NA,NA,NA,NA,NA,NA,NA,NA,NA,NA,NA,ONGOING,NA,NA,NA,NA,NA,N,N,2014-02-09,2014-02-09,NA
CDISCPILOT01,01-703-1403,1403,703,USA,67,YEARS,>=65,2,>50,3,M,WHITE,NOT HISPANIC OR LATINO,Xanomeline High Dose,Xanomeline Low Dose,Xan_Hi,Xan_Lo,Xanomeline High Dose,81,Xanomeline Low Dose,54,2012-12-12,2012-12-12,2012-12-19,2012-12-19,2012-12-12,2012-12-12,2012-12-13,2012-12-13,NA,NA,2012-12-12T00:00:00Z,H,2012-12-13T23:59:59Z,H,2012-12-12,2012-12-13,2,DISCONTINUED,2012-12-19,ADVERSE EVENT,NA,NA,NA,Y,Y,2012-12-19,2012-12-05,-7
CDISCPILOT01,01-703-1439,1439,703,USA,76,YEARS,>=65,2,>50,3,F,WHITE,NOT HISPANIC OR LATINO,Xanomeline High Dose,Xanomeline High Dose,Xan_Hi,Xan_Hi,Xanomeline High Dose,81,Xanomeline High Dose,81,2014-03-12,2014-03-12,2014-09-11,2014-09-11,2014-03-12,2014-03-12,2014-09-11,2014-09-11,NA,NA,2014-03-12T00:00:00Z,H,2014-09-11T23:59:59Z,H,2014-03-12,2014-09-11,184,COMPLETED,2014-09-11,NA,NA,NA,NA,Y,Y,2014-09-11,2014-03-04,-8
CDISCPILOT01,01-704-1008,1008,704,USA,76,YEARS,>=65,2,>50,3,F,WHITE,NOT HISPANIC OR LATINO,Xanomeline High Dose,Xanomeline High Dose,Xan_Hi,Xan_Hi,Xanomeline High Dose,81,Xanomeline High Dose,81,2013-01-13,2013-01-13,2013-02-25,2013-02-25,2013-01-13,2013-01-13,2013-02-21,2013-02-21,NA,NA,2013-01-13T00:00:00Z,H,2013-02-21T23:59:59Z,H,2013-01-13,2013-02-21,40,DISCONTINUED,2013-02-25,ADVERSE EVENT,NA,NA,NA,Y,Y,2013-02-25,2013-01-06,-7
CDISCPILOT01,01-704-1009,1009,704,USA,83,YEARS,>=65,2,>50,3,M,WHITE,NOT HISPANIC OR LATINO,Xanomeline Low Dose,Xanomeline Low Dose,Xan_Lo,Xan_Lo,Xanomeline Low Dose,54,Xanomeline Low Dose,54,2013-08-27,2013-08-27,2013-10-02,2013-10-02,2013-08-27,2013-08-27,2013-09-25,2013-09-25,NA,NA,2013-08-27T00:00:00Z,H,2013-09-25T23:59:59Z,H,2013-08-27,2013-09-25,30,DISCONTINUED,2013-10-02,WITHDRAWAL BY SUBJECT,NA,NA,NA,Y,Y,2013-10-02,2013-08-20,-7
CDISCPILOT01,01-704-1010,1010,704,USA,80,YEARS,>=65,2,>50,3,M,WHITE,NOT HISPANIC OR LATINO,Placebo,Placebo,Pbo,Pbo,Placebo,0,Placebo,0,2014-02-21,2014-02-21,2014-07-09,2014-07-09,2014-02-21,2014-02-21,2014-07-08,2014-07-08,NA,NA,2014-02-21T00:00:00Z,H,2014-07-08T23:59:59Z,H,2014-02-21,2014-07-08,138,DISCONTINUED,2014-07-09,WITHDRAWAL BY SUBJECT,NA,NA,NA,Y,Y,2014-07-09,2014-02-08,-13
CDISCPILOT01,01-704-1017,1017,704,USA,77,YEARS,>=65,2,>50,3,M,WHITE,NOT HISPANIC OR LATINO,Xanomeline High Dose,Xanomeline High Dose,Xan_Hi,Xan_Hi,Xanomeline High Dose,81,Xanomeline High Dose,81,2013-10-06,2013-10-06,2013-11-24,2013-11-24,2013-10-06,2013-10-06,2013-11-18,2013-11-18,NA,NA,2013-10-06T00:00:00Z,H,2013-11-18T23:59:59Z,H,2013-10-06,2013-11-18,44,DISCONTINUED,2013-11-24,ADVERSE EVENT,NA,NA,NA,Y,Y,2013-11-24,2013-09-20,-16
CDISCPILOT01,01-704-1025,1025,704,USA,81,YEARS,>=65,2,>50,3,F,WHITE,NOT HISPANIC OR LATINO,Xanomeline Low Dose,Xanomeline Low Dose,Xan_Lo,Xan_Lo,Xanomeline Low Dose,54,Xanomeline Low Dose,54,2013-09-27,2013-09-27,2013-11-29,2013-11-29,2013-09-27,2013-09-27,2013-10-24,2013-10-24,NA,NA,2013-09-27T00:00:00Z,H,2013-10-24T23:59:59Z,H,2013-09-27,2013-10-24,28,DISCONTINUED,2013-11-29,ADVERSE EVENT,NA,NA,NA,Y,Y,2013-11-29,2013-09-18,-9
CDISCPILOT01,01-704-1065,1065,704,USA,75,YEARS,>=65,2,>50,3,M,WHITE,NOT HISPANIC OR LATINO,Xanomeline High Dose,Xanomeline High Dose,Xan_Hi,Xan_Hi,Xanomeline High Dose,81,Xanomeline High Dose,81,2013-10-24,2013-10-24,2013-12-24,2013-12-24,2013-10-24,2013-10-24,2013-12-22,2013-12-22,NA,NA,2013-10-24T00:00:00Z,H,2013-12-22T23:59:59Z,H,2013-10-24,2013-12-22,60,DISCONTINUED,2013-12-24,ADVERSE EVENT,NA,NA,NA,Y,Y,2013-12-24,2013-10-17,-7
CDISCPILOT01,01-704-1074,1074,704,USA,80,YEARS,>=65,2,>50,3,F,WHITE,NOT HISPANIC OR LATINO,Xanomeline High Dose,Xanomeline High Dose,Xan_Hi,Xan_Hi,Xanomeline High Dose,81,Xanomeline High Dose,81,2014-01-22,2014-01-22,2014-03-31,2014-03-31,2014-01-22,2014-01-22,2014-03-20,2014-03-20,NA,NA,2014-01-22T00:00:00Z,H,2014-03-20T23:59:59Z,H,2014-01-22,2014-03-20,58,DISCONTINUED,2014-03-31,ADVERSE EVENT,NA,NA,NA,Y,Y,2014-03-31,2014-01-19,-3
CDISCPILOT01,01-704-1093,1093,704,USA,79,YEARS,>=65,2,>50,3,M,WHITE,NOT HISPANIC OR LATINO,Xanomeline High Dose,Xanomeline High Dose,Xan_Hi,Xan_Hi,Xanomeline High Dose,81,Xanomeline High Dose,81,2013-03-15,2013-03-15,2013-06-20,2013-06-20,2013-03-15,2013-03-15,2013-06-17,2013-06-17,NA,NA,2013-03-15T00:00:00Z,H,2013-06-17T23:59:59Z,H,2013-03-15,2013-06-17,95,DISCONTINUED,2013-06-20,ADVERSE EVENT,NA,NA,NA,Y,Y,2013-12-25,2013-02-22,-21
CDISCPILOT01,01-704-1114,1114,704,USA,77,YEARS,>=65,2,>50,3,M,WHITE,NOT HISPANIC OR LATINO,Xanomeline Low Dose,Xanomeline Low Dose,Xan_Lo,Xan_Lo,Xanomeline Low Dose,54,Xanomeline Low Dose,54,2013-01-23,2013-01-23,2013-07-08,2013-07-08,2013-01-23,2013-01-23,2013-07-07,2013-07-07,NA,NA,2013-01-23T00:00:00Z,H,2013-07-07T23:59:59Z,H,2013-01-23,2013-07-07,166,DISCONTINUED,2013-07-08,WITHDRAWAL BY SUBJECT,NA,NA,NA,Y,Y,2013-07-08,2013-01-09,-14
CDISCPILOT01,01-704-1120,1120,704,USA,71,YEARS,>=65,2,>50,3,F,WHITE,NOT HISPANIC OR LATINO,Xanomeline Low Dose,Xanomeline Low Dose,Xan_Lo,Xan_Lo,Xanomeline Low Dose,54,Xanomeline Low Dose,54,2013-12-02,2013-12-02,2014-02-03,2014-02-03,2013-12-02,2013-12-02,2014-02-01,2014-02-01,NA,NA,2013-12-02T00:00:00Z,H,2014-02-01T23:59:59Z,H,2013-12-02,2014-02-01,62,DISCONTINUED,2014-02-03,ADVERSE EVENT,NA,NA,NA,Y,Y,2014-02-03,2013-11-18,-14
CDISCPILOT01,01-704-1127,1127,704,USA,84,YEARS,>=65,2,>50,3,F,WHITE,NOT HISPANIC OR LATINO,Placebo,Placebo,Pbo,Pbo,Placebo,0,Placebo,0,2013-10-02,2013-10-02,2014-03-31,2014-03-31,2013-10-02,2013-10-02,2014-03-31,2014-03-31,NA,NA,2013-10-02T00:00:00Z,H,2014-03-31T23:59:59Z,H,2013-10-02,2014-03-31,181,COMPLETED,2014-03-31,NA,NA,NA,NA,Y,Y,2014-03-31,2013-09-16,-16
CDISCPILOT01,01-704-1135,1135,704,USA,74,YEARS,>=65,2,>50,3,F,WHITE,NOT HISPANIC OR LATINO,Xanomeline Low Dose,Xanomeline Low Dose,Xan_Lo,Xan_Lo,Xanomeline Low Dose,54,Xanomeline Low Dose,54,2013-10-31,2013-10-31,2014-05-16,2014-05-16,2013-10-31,2013-10-31,2014-05-16,2014-05-16,NA,NA,2013-10-31T00:00:00Z,H,2014-05-16T23:59:59Z,H,2013-10-31,2014-05-16,198,COMPLETED,2014-05-16,NA,NA,NA,NA,Y,Y,2014-05-16,2013-10-23,-8
CDISCPILOT01,01-704-1164,1164,704,USA,67,YEARS,>=65,2,>50,3,F,WHITE,NOT HISPANIC OR LATINO,Placebo,Placebo,Pbo,Pbo,Placebo,0,Placebo,0,2012-09-19,2012-09-19,2013-04-04,2013-04-04,2012-09-19,2012-09-19,2013-04-04,2013-04-04,NA,NA,2012-09-19T00:00:00Z,H,2013-04-04T23:59:59Z,H,2012-09-19,2013-04-04,198,COMPLETED,2013-04-04,NA,NA,NA,NA,Y,Y,2013-04-04,2012-09-11,-8
CDISCPILOT01,01-704-1218,1218,704,USA,81,YEARS,>=65,2,>50,3,F,WHITE,NOT HISPANIC OR LATINO,Xanomeline Low Dose,Xanomeline Low Dose,Xan_Lo,Xan_Lo,Xanomeline Low Dose,54,Xanomeline Low Dose,54,2012-11-19,2012-11-19,2013-05-27,2013-05-27,2012-11-19,2012-11-19,2013-05-27,2013-05-27,NA,NA,2012-11-19T00:00:00Z,H,2013-05-27T23:59:59Z,H,2012-11-19,2013-05-27,190,COMPLETED,2013-05-27,NA,NA,NA,NA,Y,Y,2013-05-27,2012-11-11,-8
CDISCPILOT01,01-704-1233,1233,704,USA,87,YEARS,>=65,2,>50,3,F,WHITE,NOT HISPANIC OR LATINO,Placebo,Placebo,Pbo,Pbo,Placebo,0,Placebo,0,2013-03-21,2013-03-21,2013-07-14,2013-07-14,2013-03-21,2013-03-21,2013-04-04,2013-04-04,NA,NA,2013-03-21T00:00:00Z,H,2013-04-04T23:59:59Z,H,2013-03-21,2013-04-04,15,DISCONTINUED,2013-07-14,WITHDRAWAL BY SUBJECT,NA,NA,NA,Y,Y,2013-07-14,2013-03-08,-13
CDISCPILOT01,01-704-1241,1241,704,USA,86,YEARS,>=65,2,>50,3,M,WHITE,NOT HISPANIC OR LATINO,Xanomeline High Dose,Xanomeline High Dose,Xan_Hi,Xan_Hi,Xanomeline High Dose,81,Xanomeline High Dose,81,2013-08-25,2013-08-25,2013-10-31,2013-10-31,2013-08-25,2013-08-25,2013-10-09,2013-10-09,NA,NA,2013-08-25T00:00:00Z,H,2013-10-09T23:59:59Z,H,2013-08-25,2013-10-09,46,DISCONTINUED,2013-10-31,ADVERSE EVENT,NA,NA,NA,Y,Y,2013-10-31,2013-08-14,-11
CDISCPILOT01,01-704-1260,1260,704,USA,71,YEARS,>=65,2,>50,3,F,WHITE,NOT HISPANIC OR LATINO,Placebo,Placebo,Pbo,Pbo,Placebo,0,Placebo,0,2012-08-30,2012-08-30,2013-01-18,2013-01-18,2012-08-30,2012-08-30,2012-11-04,2012-11-04,NA,NA,2012-08-30T00:00:00Z,H,2012-11-04T23:59:59Z,H,2012-08-30,2012-11-04,67,DISCONTINUED,2013-01-18,WITHDRAWAL BY SUBJECT,NA,NA,NA,Y,Y,2013-01-18,2012-08-23,-7
CDISCPILOT01,01-704-1266,1266,704,USA,82,YEARS,>=65,2,>50,3,M,WHITE,NOT HISPANIC OR LATINO,Xanomeline High Dose,Xanomeline High Dose,Xan_Hi,Xan_Hi,Xanomeline High Dose,81,Xanomeline High Dose,81,2013-10-13,2013-10-13,2013-12-06,2013-12-06,2013-10-13,2013-10-13,2013-12-06,2013-12-06,NA,NA,2013-10-13T00:00:00Z,H,2013-12-06T23:59:59Z,H,2013-10-13,2013-12-06,55,DISCONTINUED,2013-12-06,ADVERSE EVENT,NA,NA,NA,Y,Y,2013-12-06,2013-10-05,-8
CDISCPILOT01,01-704-1323,1323,704,USA,68,YEARS,>=65,2,>50,3,F,WHITE,NOT HISPANIC OR LATINO,Xanomeline Low Dose,Xanomeline Low Dose,Xan_Lo,Xan_Lo,Xanomeline Low Dose,54,Xanomeline Low Dose,54,2013-07-08,2013-07-08,2013-08-08,2013-08-08,2013-07-08,2013-07-08,2013-08-05,2013-08-05,NA,NA,2013-07-08T00:00:00Z,H,2013-08-05T23:59:59Z,H,2013-07-08,2013-08-05,29,DISCONTINUED,2013-08-08,ADVERSE EVENT,NA,NA,NA,Y,Y,2013-08-08,2013-06-13,-25
CDISCPILOT01,01-704-1325,1325,704,USA,81,YEARS,>=65,2,>50,3,M,WHITE,NOT HISPANIC OR LATINO,Xanomeline Low Dose,Xanomeline Low Dose,Xan_Lo,Xan_Lo,Xanomeline Low Dose,54,Xanomeline Low Dose,54,2014-04-23,2014-04-23,2014-08-06,2014-08-06,2014-04-23,2014-04-23,2014-07-04,2014-07-04,NA,NA,2014-04-23T00:00:00Z,H,2014-07-04T23:59:59Z,H,2014-04-23,2014-07-04,73,DISCONTINUED,2014-08-06,PROTOCOL VIOLATION,NA,NA,NA,Y,Y,2014-08-06,2014-04-16,-7
CDISCPILOT01,01-704-1332,1332,704,USA,80,YEARS,>=65,2,>50,3,M,WHITE,NOT HISPANIC OR LATINO,Xanomeline High Dose,Xanomeline High Dose,Xan_Hi,Xan_Hi,Xanomeline High Dose,81,Xanomeline High Dose,81,2013-12-09,2013-12-09,2014-02-16,2014-02-16,2013-12-09,2013-12-09,2014-02-14,2014-02-14,NA,NA,2013-12-09T00:00:00Z,H,2014-02-14T23:59:59Z,H,2013-12-09,2014-02-14,68,DISCONTINUED,2014-02-16,ADVERSE EVENT,NA,NA,NA,Y,Y,2014-02-16,2013-11-24,-15
CDISCPILOT01,01-704-1351,1351,704,USA,70,YEARS,>=65,2,>50,3,M,WHITE,NOT HISPANIC OR LATINO,Placebo,Placebo,Pbo,Pbo,Placebo,0,Placebo,0,2013-10-12,2013-10-12,2014-04-18,2014-04-18,2013-10-12,2013-10-12,2014-04-18,2014-04-18,NA,NA,2013-10-12T00:00:00Z,H,2014-04-18T23:59:59Z,H,2013-10-12,2014-04-18,189,COMPLETED,2014-04-18,NA,NA,NA,NA,Y,Y,2014-04-18,2013-09-26,-16
CDISCPILOT01,01-704-1388,1388,704,USA,81,YEARS,>=65,2,>50,3,M,WHITE,NOT HISPANIC OR LATINO,Placebo,Placebo,Pbo,Pbo,Placebo,0,Placebo,0,2012-12-07,2012-12-07,2013-06-19,2013-06-19,2012-12-07,2012-12-07,2013-06-11,2013-06-11,NA,NA,2012-12-07T00:00:00Z,H,2013-06-11T23:59:59Z,H,2012-12-07,2013-06-11,187,COMPLETED,2013-06-19,NA,NA,NA,NA,Y,Y,2013-06-19,2012-11-28,-9
CDISCPILOT01,01-704-1435,1435,704,USA,74,YEARS,>=65,2,>50,3,M,WHITE,NOT HISPANIC OR LATINO,Placebo,Placebo,Pbo,Pbo,Placebo,0,Placebo,0,2012-11-17,2012-11-17,2013-01-12,2013-01-12,2012-11-17,2012-11-17,2013-01-09,2013-01-09,NA,NA,2012-11-17T00:00:00Z,H,2013-01-09T23:59:59Z,H,2012-11-17,2013-01-09,54,DISCONTINUED,2013-01-12,WITHDRAWAL BY SUBJECT,NA,NA,NA,Y,Y,2013-01-12,2012-11-01,-16
CDISCPILOT01,01-704-1445,1445,704,USA,75,YEARS,>=65,2,>50,3,M,WHITE,NOT HISPANIC OR LATINO,Placebo,Placebo,Pbo,Pbo,Placebo,0,Placebo,0,2014-05-11,2014-05-11,2014-11-01,2014-11-01,2014-05-11,2014-05-11,2014-11-01,2014-11-01,NA,NA,2014-05-11T00:00:00Z,H,2014-11-01T23:59:59Z,H,2014-05-11,2014-11-01,175,DISCONTINUED,2014-11-01,DEATH,Y,2014-11-01,2014-11-01,Y,Y,2014-11-01,2014-05-01,-10
CDISCPILOT01,01-705-1011,1011,705,USA,75,YEARS,>=65,2,>50,3,F,WHITE,NOT HISPANIC OR LATINO,Screen Failure,Screen Failure,Scrnfail,Scrnfail,Screen Failure,NA,Screen Failure,NA,NA,NA,NA,NA,NA,NA,NA,NA,NA,NA,NA,NA,NA,NA,NA,NA,NA,ONGOING,NA,NA,NA,NA,NA,N,N,2013-09-01,2013-09-01,NA
CDISCPILOT01,01-705-1018,1018,705,USA,69,YEARS,>=65,2,>50,3,F,WHITE,NOT HISPANIC OR LATINO,Placebo,Placebo,Pbo,Pbo,Placebo,0,Placebo,0,2013-07-05,2013-07-05,2013-07-12,2013-07-12,2013-07-05,2013-07-05,NA,NA,NA,NA,2013-07-05T00:00:00Z,H,NA,NA,2013-07-05,NA,NA,DISCONTINUED,2013-07-12,WITHDRAWAL BY SUBJECT,NA,NA,NA,Y,Y,2013-07-12,2013-06-30,-5
CDISCPILOT01,01-705-1031,1031,705,USA,56,YEARS,<65,1,>50,3,F,WHITE,HISPANIC OR LATINO,Xanomeline Low Dose,Xanomeline Low Dose,Xan_Lo,Xan_Lo,Xanomeline Low Dose,54,Xanomeline Low Dose,54,2013-11-27,2013-11-27,2014-05-11,2014-05-11,2013-11-27,2013-11-27,2013-12-18,2013-12-18,NA,NA,2013-11-27T00:00:00Z,H,2013-12-18T23:59:59Z,H,2013-11-27,2013-12-18,22,DISCONTINUED,2014-05-11,LOST TO FOLLOW-UP,NA,NA,NA,Y,Y,2014-05-11,2013-11-17,-10
CDISCPILOT01,01-705-1058,1058,705,USA,89,YEARS,>=65,2,>50,3,M,WHITE,NOT HISPANIC OR LATINO,Screen Failure,Screen Failure,Scrnfail,Scrnfail,Screen Failure,NA,Screen Failure,NA,NA,NA,NA,NA,NA,NA,NA,NA,NA,NA,NA,NA,NA,NA,NA,NA,NA,ONGOING,NA,NA,NA,NA,NA,N,N,2013-12-02,2013-12-02,NA
CDISCPILOT01,01-705-1059,1059,705,USA,66,YEARS,>=65,2,>50,3,F,WHITE,NOT HISPANIC OR LATINO,Placebo,Placebo,Pbo,Pbo,Placebo,0,Placebo,0,2013-08-05,2013-08-05,2013-12-05,2013-12-05,2013-08-05,2013-08-05,2013-12-05,2013-12-05,NA,NA,2013-08-05T00:00:00Z,H,2013-12-05T23:59:59Z,H,2013-08-05,2013-12-05,123,DISCONTINUED,2013-12-05,ADVERSE EVENT,NA,NA,NA,Y,Y,2014-02-06,2013-08-02,-3
CDISCPILOT01,01-705-1112,1112,705,USA,78,YEARS,>=65,2,>50,3,M,WHITE,NOT HISPANIC OR LATINO,Screen Failure,Screen Failure,Scrnfail,Scrnfail,Screen Failure,NA,Screen Failure,NA,NA,NA,NA,NA,NA,NA,NA,NA,NA,NA,NA,NA,NA,NA,NA,NA,NA,ONGOING,NA,NA,NA,NA,NA,N,N,2014-02-23,2014-02-23,NA
CDISCPILOT01,01-705-1186,1186,705,USA,84,YEARS,>=65,2,>50,3,F,WHITE,NOT HISPANIC OR LATINO,Placebo,Placebo,Pbo,Pbo,Placebo,0,Placebo,0,2014-01-08,2014-01-08,2014-02-07,2014-02-07,2014-01-08,2014-01-08,2014-01-26,2014-01-26,NA,NA,2014-01-08T00:00:00Z,H,2014-01-26T23:59:59Z,H,2014-01-08,2014-01-26,19,DISCONTINUED,2014-02-07,PHYSICIAN DECISION,NA,NA,NA,Y,Y,2014-02-07,2014-01-03,-5
CDISCPILOT01,01-705-1199,1199,705,USA,87,YEARS,>=65,2,>50,3,M,WHITE,NOT HISPANIC OR LATINO,Xanomeline Low Dose,Xanomeline Low Dose,Xan_Lo,Xan_Lo,Xanomeline Low Dose,54,Xanomeline Low Dose,54,2013-09-16,2013-09-16,2013-09-29,2013-09-29,2013-09-16,2013-09-16,2013-09-28,2013-09-28,NA,NA,2013-09-16T00:00:00Z,H,2013-09-28T23:59:59Z,H,2013-09-16,2013-09-28,13,DISCONTINUED,2013-09-29,ADVERSE EVENT,NA,NA,NA,Y,Y,2013-09-29,2013-09-11,-5
CDISCPILOT01,01-705-1243,1243,705,USA,70,YEARS,>=65,2,>50,3,F,WHITE,HISPANIC OR LATINO,Screen Failure,Screen Failure,Scrnfail,Scrnfail,Screen Failure,NA,Screen Failure,NA,NA,NA,NA,NA,NA,NA,NA,NA,NA,NA,NA,NA,NA,NA,NA,NA,NA,ONGOING,NA,NA,NA,NA,NA,N,N,2013-02-26,2013-02-26,NA
CDISCPILOT01,01-705-1280,1280,705,USA,56,YEARS,<65,1,>50,3,F,WHITE,NOT HISPANIC OR LATINO,Xanomeline High Dose,Xanomeline High Dose,Xan_Hi,Xan_Hi,Xanomeline High Dose,81,Xanomeline High Dose,81,2014-01-17,2014-01-17,2014-07-25,2014-07-25,2014-01-17,2014-01-17,2014-07-25,2014-07-25,NA,NA,2014-01-17T00:00:00Z,H,2014-07-25T23:59:59Z,H,2014-01-17,2014-07-25,190,COMPLETED,2014-07-25,NA,NA,NA,NA,Y,Y,2014-07-25,2014-01-11,-6
CDISCPILOT01,01-705-1281,1281,705,USA,73,YEARS,>=65,2,>50,3,F,BLACK OR AFRICAN AMERICAN,NOT HISPANIC OR LATINO,Xanomeline High Dose,Xanomeline High Dose,Xan_Hi,Xan_Hi,Xanomeline High Dose,81,Xanomeline High Dose,81,2013-11-28,2013-11-28,2014-03-17,2014-03-17,2013-11-28,2013-11-28,2014-02-27,2014-02-27,NA,NA,2013-11-28T00:00:00Z,H,2014-02-27T23:59:59Z,H,2013-11-28,2014-02-27,92,DISCONTINUED,2014-03-17,ADVERSE EVENT,NA,NA,NA,Y,Y,2014-03-17,2013-11-26,-2
CDISCPILOT01,01-705-1282,1282,705,USA,70,YEARS,>=65,2,>50,3,F,BLACK OR AFRICAN AMERICAN,NOT HISPANIC OR LATINO,Placebo,Placebo,Pbo,Pbo,Placebo,0,Placebo,0,2012-12-26,2012-12-26,2013-06-24,2013-06-24,2012-12-26,2012-12-26,2013-06-24,2013-06-24,NA,NA,2012-12-26T00:00:00Z,H,2013-06-24T23:59:59Z,H,2012-12-26,2013-06-24,181,COMPLETED,2013-06-24,NA,NA,NA,NA,Y,Y,2013-06-24,2012-12-23,-3
CDISCPILOT01,01-705-1292,1292,705,USA,60,YEARS,<65,1,>50,3,F,BLACK OR AFRICAN AMERICAN,NOT HISPANIC OR LATINO,Xanomeline Low Dose,Xanomeline Low Dose,Xan_Lo,Xan_Lo,Xanomeline Low Dose,54,Xanomeline Low Dose,54,2013-10-14,2013-10-14,2014-05-14,2014-05-14,2013-10-14,2013-10-14,2014-05-13,2014-05-13,NA,NA,2013-10-14T00:00:00Z,H,2014-05-13T23:59:59Z,H,2013-10-14,2014-05-13,212,COMPLETED,2014-05-14,NA,NA,NA,NA,Y,Y,2014-05-14,2013-10-11,-3
CDISCPILOT01,01-705-1303,1303,705,USA,72,YEARS,>=65,2,>50,3,M,WHITE,NOT HISPANIC OR LATINO,Xanomeline High Dose,Xanomeline High Dose,Xan_Hi,Xan_Hi,Xanomeline High Dose,81,Xanomeline High Dose,81,2013-12-16,2013-12-16,2014-06-02,2014-06-02,2013-12-16,2013-12-16,2013-12-30,2013-12-30,NA,NA,2013-12-16T00:00:00Z,H,2013-12-30T23:59:59Z,H,2013-12-16,2013-12-30,15,DISCONTINUED,2014-06-02,ADVERSE EVENT,NA,NA,NA,Y,Y,2014-06-02,2013-12-10,-6
CDISCPILOT01,01-705-1310,1310,705,USA,74,YEARS,>=65,2,>50,3,F,WHITE,NOT HISPANIC OR LATINO,Xanomeline High Dose,Xanomeline High Dose,Xan_Hi,Xan_Hi,Xanomeline High Dose,81,Xanomeline High Dose,81,2013-11-02,2013-11-02,2014-01-23,2014-01-23,2013-11-02,2013-11-02,2014-01-23,2014-01-23,NA,NA,2013-11-02T00:00:00Z,H,2014-01-23T23:59:59Z,H,2013-11-02,2014-01-23,83,DISCONTINUED,2014-01-23,ADVERSE EVENT,NA,NA,NA,Y,Y,2014-01-23,2013-10-26,-7
CDISCPILOT01,01-705-1349,1349,705,USA,86,YEARS,>=65,2,>50,3,F,WHITE,HISPANIC OR LATINO,Placebo,Placebo,Pbo,Pbo,Placebo,0,Placebo,0,2013-03-10,2013-03-10,2013-09-08,2013-09-08,2013-03-10,2013-03-10,2013-09-08,2013-09-08,NA,NA,2013-03-10T00:00:00Z,H,2013-09-08T23:59:59Z,H,2013-03-10,2013-09-08,183,COMPLETED,2013-09-08,NA,NA,NA,NA,Y,Y,2013-09-08,2013-02-24,-14
CDISCPILOT01,01-705-1377,1377,705,USA,63,YEARS,<65,1,>50,3,F,BLACK OR AFRICAN AMERICAN,NOT HISPANIC OR LATINO,Xanomeline High Dose,Xanomeline High Dose,Xan_Hi,Xan_Hi,Xanomeline High Dose,81,Xanomeline High Dose,81,2014-01-04,2014-01-04,2014-03-07,2014-03-07,2014-01-04,2014-01-04,2014-01-25,2014-01-25,NA,NA,2014-01-04T00:00:00Z,H,2014-01-25T23:59:59Z,H,2014-01-04,2014-01-25,22,DISCONTINUED,2014-03-07,WITHDRAWAL BY SUBJECT,NA,NA,NA,Y,Y,2014-03-07,2013-12-29,-6
CDISCPILOT01,01-705-1382,1382,705,USA,82,YEARS,>=65,2,>50,3,M,WHITE,NOT HISPANIC OR LATINO,Xanomeline High Dose,Xanomeline Low Dose,Xan_Hi,Xan_Lo,Xanomeline High Dose,81,Xanomeline Low Dose,54,2013-05-13,2013-05-13,2013-05-13,2013-05-13,2013-05-13,2013-05-13,NA,NA,NA,NA,2013-05-13T00:00:00Z,H,NA,NA,2013-05-13,NA,NA,DISCONTINUED,2013-05-13,PROTOCOL VIOLATION,NA,NA,NA,Y,Y,2013-05-13,2013-05-09,-4
CDISCPILOT01,01-705-1393,1393,705,USA,84,YEARS,>=65,2,>50,3,F,WHITE,NOT HISPANIC OR LATINO,Xanomeline Low Dose,Xanomeline Low Dose,Xan_Lo,Xan_Lo,Xanomeline Low Dose,54,Xanomeline Low Dose,54,2012-09-07,2012-09-07,2013-02-20,2013-02-20,2012-09-07,2012-09-07,2013-02-01,2013-02-01,NA,NA,2012-09-07T00:00:00Z,H,2013-02-01T23:59:59Z,H,2012-09-07,2013-02-01,148,DISCONTINUED,2013-02-20,ADVERSE EVENT,NA,NA,NA,Y,Y,2013-02-20,2012-09-02,-5
CDISCPILOT01,01-705-1421,1421,705,USA,87,YEARS,>=65,2,>50,3,M,WHITE,NOT HISPANIC OR LATINO,Screen Failure,Screen Failure,Scrnfail,Scrnfail,Screen Failure,NA,Screen Failure,NA,NA,NA,NA,NA,NA,NA,NA,NA,NA,NA,NA,NA,NA,NA,NA,NA,NA,ONGOING,NA,NA,NA,NA,NA,N,N,2013-01-14,2013-01-14,NA
CDISCPILOT01,01-705-1431,1431,705,USA,68,YEARS,>=65,2,>50,3,F,WHITE,HISPANIC OR LATINO,Xanomeline Low Dose,Xanomeline Low Dose,Xan_Lo,Xan_Lo,Xanomeline Low Dose,54,Xanomeline Low Dose,54,2013-06-23,2013-06-23,2013-12-19,2013-12-19,2013-06-23,2013-06-23,2013-12-19,2013-12-19,NA,NA,2013-06-23T00:00:00Z,H,2013-12-19T23:59:59Z,H,2013-06-23,2013-12-19,180,COMPLETED,2013-12-19,NA,NA,NA,NA,Y,Y,2013-12-19,2013-06-16,-7
CDISCPILOT01,01-706-1041,1041,706,USA,64,YEARS,<65,1,>50,3,F,BLACK OR AFRICAN AMERICAN,NOT HISPANIC OR LATINO,Placebo,Placebo,Pbo,Pbo,Placebo,0,Placebo,0,2013-12-31,2013-12-31,2014-07-29,2014-07-29,2013-12-31,2013-12-31,2014-07-28,2014-07-28,NA,NA,2013-12-31T00:00:00Z,H,2014-07-28T23:59:59Z,H,2013-12-31,2014-07-28,210,COMPLETED,2014-07-29,NA,NA,NA,NA,Y,Y,2014-07-29,2013-12-21,-10
CDISCPILOT01,01-706-1049,1049,706,USA,60,YEARS,<65,1,>50,3,F,WHITE,NOT HISPANIC OR LATINO,Xanomeline High Dose,Xanomeline High Dose,Xan_Hi,Xan_Hi,Xanomeline High Dose,81,Xanomeline High Dose,81,2013-05-14,2013-05-14,2013-06-25,2013-06-25,2013-05-14,2013-05-14,2013-06-18,2013-06-18,NA,NA,2013-05-14T00:00:00Z,H,2013-06-18T23:59:59Z,H,2013-05-14,2013-06-18,36,DISCONTINUED,2013-06-25,ADVERSE EVENT,NA,NA,NA,Y,Y,2013-11-26,2013-04-30,-14
CDISCPILOT01,01-706-1384,1384,706,USA,74,YEARS,>=65,2,>50,3,F,WHITE,NOT HISPANIC OR LATINO,Xanomeline Low Dose,Xanomeline Low Dose,Xan_Lo,Xan_Lo,Xanomeline Low Dose,54,Xanomeline Low Dose,54,2012-09-15,2012-09-15,2012-09-29,2012-09-29,2012-09-15,2012-09-15,2012-09-24,2012-09-24,NA,NA,2012-09-15T00:00:00Z,H,2012-09-24T23:59:59Z,H,2012-09-15,2012-09-24,10,DISCONTINUED,2012-09-29,ADVERSE EVENT,NA,NA,NA,Y,Y,2013-06-22,2012-08-25,-21
CDISCPILOT01,01-707-1037,1037,707,USA,72,YEARS,>=65,2,>50,3,F,WHITE,NOT HISPANIC OR LATINO,Xanomeline Low Dose,Xanomeline Low Dose,Xan_Lo,Xan_Lo,Xanomeline Low Dose,54,Xanomeline Low Dose,54,2013-12-20,2013-12-20,2014-01-08,2014-01-08,2013-12-20,2013-12-20,2013-12-24,2013-12-24,NA,NA,2013-12-20T00:00:00Z,H,2013-12-24T23:59:59Z,H,2013-12-20,2013-12-24,5,DISCONTINUED,2014-01-08,WITHDRAWAL BY SUBJECT,NA,NA,NA,Y,Y,2014-01-08,2013-12-12,-8
CDISCPILOT01,01-707-1206,1206,707,USA,65,YEARS,>=65,2,>50,3,M,WHITE,NOT HISPANIC OR LATINO,Placebo,Placebo,Pbo,Pbo,Placebo,0,Placebo,0,2013-10-28,2013-10-28,2014-04-27,2014-04-27,2013-10-28,2013-10-28,2014-04-26,2014-04-26,NA,NA,2013-10-28T00:00:00Z,H,2014-04-26T23:59:59Z,H,2013-10-28,2014-04-26,181,COMPLETED,2014-04-27,NA,NA,NA,NA,Y,Y,2014-04-27,2013-10-20,-8
CDISCPILOT01,01-707-1276,1276,707,USA,72,YEARS,>=65,2,>50,3,F,WHITE,NOT HISPANIC OR LATINO,Screen Failure,Screen Failure,Scrnfail,Scrnfail,Screen Failure,NA,Screen Failure,NA,NA,NA,NA,NA,NA,NA,NA,NA,NA,NA,NA,NA,NA,NA,NA,NA,NA,ONGOING,NA,NA,NA,NA,NA,N,N,2012-10-12,2012-10-12,NA
CDISCPILOT01,01-707-1430,1430,707,USA,81,YEARS,>=65,2,>50,3,F,WHITE,NOT HISPANIC OR LATINO,Screen Failure,Screen Failure,Scrnfail,Scrnfail,Screen Failure,NA,Screen Failure,NA,NA,NA,NA,NA,NA,NA,NA,NA,NA,NA,NA,NA,NA,NA,NA,NA,NA,ONGOING,NA,NA,NA,NA,NA,N,N,2014-02-14,2014-02-14,NA
CDISCPILOT01,01-707-1434,1434,707,USA,76,YEARS,>=65,2,>50,3,F,WHITE,NOT HISPANIC OR LATINO,Screen Failure,Screen Failure,Scrnfail,Scrnfail,Screen Failure,NA,Screen Failure,NA,NA,NA,NA,NA,NA,NA,NA,NA,NA,NA,NA,NA,NA,NA,NA,NA,NA,ONGOING,NA,NA,NA,NA,NA,N,N,2013-07-25,2013-07-25,NA
CDISCPILOT01,01-708-1013,1013,708,USA,80,YEARS,>=65,2,>50,3,M,WHITE,NOT HISPANIC OR LATINO,Screen Failure,Screen Failure,Scrnfail,Scrnfail,Screen Failure,NA,Screen Failure,NA,NA,NA,NA,NA,NA,NA,NA,NA,NA,NA,NA,NA,NA,NA,NA,NA,NA,ONGOING,NA,NA,NA,NA,NA,N,N,2012-10-13,2012-10-13,NA
CDISCPILOT01,01-708-1019,1019,708,USA,68,YEARS,>=65,2,>50,3,M,WHITE,NOT HISPANIC OR LATINO,Xanomeline Low Dose,Xanomeline Low Dose,Xan_Lo,Xan_Lo,Xanomeline Low Dose,54,Xanomeline Low Dose,54,2013-12-20,2013-12-20,2014-01-23,2014-01-23,2013-12-20,2013-12-20,2014-01-01,2014-01-01,NA,NA,2013-12-20T00:00:00Z,H,2014-01-01T23:59:59Z,H,2013-12-20,2014-01-01,13,DISCONTINUED,2014-01-23,ADVERSE EVENT,NA,NA,NA,Y,Y,2014-01-23,2013-12-10,-10
CDISCPILOT01,01-708-1032,1032,708,USA,62,YEARS,<65,1,>50,3,M,WHITE,NOT HISPANIC OR LATINO,Xanomeline Low Dose,Xanomeline Low Dose,Xan_Lo,Xan_Lo,Xanomeline Low Dose,54,Xanomeline Low Dose,54,2013-02-09,2013-02-09,2013-03-09,2013-03-09,2013-02-09,2013-02-09,2013-03-01,2013-03-01,NA,NA,2013-02-09T00:00:00Z,H,2013-03-01T23:59:59Z,H,2013-02-09,2013-03-01,21,DISCONTINUED,2013-03-09,ADVERSE EVENT,NA,NA,NA,Y,Y,2013-03-09,2013-02-02,-7
CDISCPILOT01,01-708-1054,1054,708,USA,73,YEARS,>=65,2,>50,3,F,BLACK OR AFRICAN AMERICAN,NOT HISPANIC OR LATINO,Screen Failure,Screen Failure,Scrnfail,Scrnfail,Screen Failure,NA,Screen Failure,NA,NA,NA,NA,NA,NA,NA,NA,NA,NA,NA,NA,NA,NA,NA,NA,NA,NA,ONGOING,NA,NA,NA,NA,NA,N,N,2014-02-14,2014-02-14,NA
CDISCPILOT01,01-708-1067,1067,708,USA,88,YEARS,>=65,2,>50,3,M,WHITE,NOT HISPANIC OR LATINO,Screen Failure,Screen Failure,Scrnfail,Scrnfail,Screen Failure,NA,Screen Failure,NA,NA,NA,NA,NA,NA,NA,NA,NA,NA,NA,NA,NA,NA,NA,NA,NA,NA,ONGOING,NA,NA,NA,NA,NA,N,N,2013-02-07,2013-02-07,NA
CDISCPILOT01,01-708-1084,1084,708,USA,73,YEARS,>=65,2,>50,3,F,WHITE,NOT HISPANIC OR LATINO,Xanomeline Low Dose,Xanomeline Low Dose,Xan_Lo,Xan_Lo,Xanomeline Low Dose,54,Xanomeline Low Dose,54,2013-05-09,2013-05-09,2013-11-11,2013-11-11,2013-05-09,2013-05-09,2013-11-11,2013-11-11,NA,NA,2013-05-09T00:00:00Z,H,2013-11-11T23:59:59Z,H,2013-05-09,2013-11-11,187,COMPLETED,2013-11-11,NA,NA,NA,NA,Y,Y,2013-11-11,2013-05-01,-8
CDISCPILOT01,01-708-1087,1087,708,USA,74,YEARS,>=65,2,>50,3,F,WHITE,NOT HISPANIC OR LATINO,Placebo,Placebo,Pbo,Pbo,Placebo,0,Placebo,0,2012-10-22,2012-10-22,2013-04-28,2013-04-28,2012-10-22,2012-10-22,2013-04-28,2013-04-28,NA,NA,2012-10-22T00:00:00Z,H,2013-04-28T23:59:59Z,H,2012-10-22,2013-04-28,189,COMPLETED,2013-04-28,NA,NA,NA,NA,Y,Y,2013-04-28,2012-10-06,-16
CDISCPILOT01,01-708-1104,1104,708,USA,78,YEARS,>=65,2,>50,3,F,ASIAN,NOT HISPANIC OR LATINO,Screen Failure,Screen Failure,Scrnfail,Scrnfail,Screen Failure,NA,Screen Failure,NA,NA,NA,NA,NA,NA,NA,NA,NA,NA,NA,NA,NA,NA,NA,NA,NA,NA,ONGOING,NA,NA,NA,NA,NA,N,N,2014-01-23,2014-01-23,NA
CDISCPILOT01,01-708-1158,1158,708,USA,81,YEARS,>=65,2,>50,3,F,WHITE,NOT HISPANIC OR LATINO,Placebo,Placebo,Pbo,Pbo,Placebo,0,Placebo,0,2014-02-08,2014-02-08,2014-03-22,2014-03-22,2014-02-08,2014-02-08,2014-03-21,2014-03-21,NA,NA,2014-02-08T00:00:00Z,H,2014-03-21T23:59:59Z,H,2014-02-08,2014-03-21,42,DISCONTINUED,2014-03-22,ADVERSE EVENT,NA,NA,NA,Y,Y,2014-03-22,2014-02-01,-7
CDISCPILOT01,01-708-1171,1171,708,USA,77,YEARS,>=65,2,>50,3,F,WHITE,NOT HISPANIC OR LATINO,Placebo,Placebo,Pbo,Pbo,Placebo,0,Placebo,0,2012-12-06,2012-12-06,2013-06-04,2013-06-04,2012-12-06,2012-12-06,2013-06-04,2013-06-04,NA,NA,2012-12-06T00:00:00Z,H,2013-06-04T23:59:59Z,H,2012-12-06,2013-06-04,181,COMPLETED,2013-06-04,NA,NA,NA,NA,Y,Y,2013-06-04,2012-11-25,-11
CDISCPILOT01,01-708-1178,1178,708,USA,77,YEARS,>=65,2,>50,3,F,BLACK OR AFRICAN AMERICAN,NOT HISPANIC OR LATINO,Xanomeline High Dose,Xanomeline High Dose,Xan_Hi,Xan_Hi,Xanomeline High Dose,81,Xanomeline High Dose,81,2013-12-29,2013-12-29,2014-04-06,2014-04-06,2013-12-29,2013-12-29,2014-04-06,2014-04-06,NA,NA,2013-12-29T00:00:00Z,H,2014-04-06T23:59:59Z,H,2013-12-29,2014-04-06,99,DISCONTINUED,2014-04-06,PHYSICIAN DECISION,NA,NA,NA,Y,Y,2014-04-06,2013-12-13,-16
CDISCPILOT01,01-708-1184,1184,708,USA,70,YEARS,>=65,2,>50,3,F,WHITE,NOT HISPANIC OR LATINO,Screen Failure,Screen Failure,Scrnfail,Scrnfail,Screen Failure,NA,Screen Failure,NA,NA,NA,NA,NA,NA,NA,NA,NA,NA,NA,NA,NA,NA,NA,NA,NA,NA,ONGOING,NA,NA,NA,NA,NA,N,N,2013-01-14,2013-01-14,NA
CDISCPILOT01,01-708-1213,1213,708,USA,76,YEARS,>=65,2,>50,3,F,WHITE,NOT HISPANIC OR LATINO,Xanomeline High Dose,Xanomeline Low Dose,Xan_Hi,Xan_Lo,Xanomeline High Dose,81,Xanomeline Low Dose,54,2013-02-09,2013-02-09,2013-02-26,2013-02-26,2013-02-09,2013-02-09,2013-02-22,2013-02-22,NA,NA,2013-02-09T00:00:00Z,H,2013-02-22T23:59:59Z,H,2013-02-09,2013-02-22,14,DISCONTINUED,2013-02-26,ADVERSE EVENT,NA,NA,NA,Y,Y,2013-02-26,2013-02-01,-8
CDISCPILOT01,01-708-1216,1216,708,USA,78,YEARS,>=65,2,>50,3,M,WHITE,NOT HISPANIC OR LATINO,Xanomeline High Dose,Xanomeline High Dose,Xan_Hi,Xan_Hi,Xanomeline High Dose,81,Xanomeline High Dose,81,2012-10-24,2012-10-24,2012-12-06,2012-12-06,2012-10-24,2012-10-24,2012-11-29,2012-11-29,NA,NA,2012-10-24T00:00:00Z,H,2012-11-29T23:59:59Z,H,2012-10-24,2012-11-29,37,DISCONTINUED,2012-12-06,ADVERSE EVENT,NA,NA,NA,Y,Y,2012-12-06,2012-10-14,-10
CDISCPILOT01,01-708-1236,1236,708,USA,86,YEARS,>=65,2,>50,3,F,WHITE,NOT HISPANIC OR LATINO,Xanomeline High Dose,Xanomeline Low Dose,Xan_Hi,Xan_Lo,Xanomeline High Dose,81,Xanomeline Low Dose,54,2013-09-21,2013-09-21,2013-09-26,2013-09-26,2013-09-21,2013-09-21,2013-09-21,2013-09-21,NA,NA,2013-09-21T00:00:00Z,H,2013-09-21T23:59:59Z,H,2013-09-21,2013-09-21,1,DISCONTINUED,2013-09-26,WITHDRAWAL BY SUBJECT,NA,NA,NA,Y,Y,2013-09-26,2013-09-08,-13
CDISCPILOT01,01-708-1242,1242,708,USA,80,YEARS,>=65,2,>50,3,M,WHITE,NOT HISPANIC OR LATINO,Screen Failure,Screen Failure,Scrnfail,Scrnfail,Screen Failure,NA,Screen Failure,NA,NA,NA,NA,NA,NA,NA,NA,NA,NA,NA,NA,NA,NA,NA,NA,NA,NA,ONGOING,NA,NA,NA,NA,NA,N,N,2012-08-13,2012-08-13,NA
CDISCPILOT01,01-708-1253,1253,708,USA,61,YEARS,<65,1,>50,3,M,WHITE,NOT HISPANIC OR LATINO,Placebo,Placebo,Pbo,Pbo,Placebo,0,Placebo,0,2013-05-07,2013-05-07,2013-11-05,2013-11-05,2013-05-07,2013-05-07,2013-11-05,2013-11-05,NA,NA,2013-05-07T00:00:00Z,H,2013-11-05T23:59:59Z,H,2013-05-07,2013-11-05,183,COMPLETED,2013-11-05,NA,NA,NA,NA,Y,Y,2013-11-05,2013-04-26,-11
CDISCPILOT01,01-708-1272,1272,708,USA,82,YEARS,>=65,2,>50,3,M,WHITE,NOT HISPANIC OR LATINO,Xanomeline Low Dose,Xanomeline Low Dose,Xan_Lo,Xan_Lo,Xanomeline Low Dose,54,Xanomeline Low Dose,54,2013-02-06,2013-02-06,2013-04-04,2013-04-04,2013-02-06,2013-02-06,2013-03-22,2013-03-22,NA,NA,2013-02-06T00:00:00Z,H,2013-03-22T23:59:59Z,H,2013-02-06,2013-03-22,45,DISCONTINUED,2013-04-04,WITHDRAWAL BY SUBJECT,NA,NA,NA,Y,Y,2013-04-04,2013-01-22,-15
CDISCPILOT01,01-708-1286,1286,708,USA,80,YEARS,>=65,2,>50,3,F,BLACK OR AFRICAN AMERICAN,NOT HISPANIC OR LATINO,Placebo,Placebo,Pbo,Pbo,Placebo,0,Placebo,0,2013-09-10,2013-09-10,2014-03-08,2014-03-08,2013-09-10,2013-09-10,2014-03-08,2014-03-08,NA,NA,2013-09-10T00:00:00Z,H,2014-03-08T23:59:59Z,H,2013-09-10,2014-03-08,180,COMPLETED,2014-03-08,NA,NA,NA,NA,Y,Y,2014-03-08,2013-08-25,-16
CDISCPILOT01,01-708-1296,1296,708,USA,57,YEARS,<65,1,>50,3,M,BLACK OR AFRICAN AMERICAN,NOT HISPANIC OR LATINO,Placebo,Placebo,Pbo,Pbo,Placebo,0,Placebo,0,2013-06-14,2013-06-14,2013-12-12,2013-12-12,2013-06-14,2013-06-14,2013-12-12,2013-12-12,NA,NA,2013-06-14T00:00:00Z,H,2013-12-12T23:59:59Z,H,2013-06-14,2013-12-12,182,COMPLETED,2013-12-12,NA,NA,NA,NA,Y,Y,2013-12-12,2013-06-07,-7
CDISCPILOT01,01-708-1297,1297,708,USA,61,YEARS,<65,1,>50,3,M,WHITE,NOT HISPANIC OR LATINO,Xanomeline Low Dose,Xanomeline Low Dose,Xan_Lo,Xan_Lo,Xanomeline Low Dose,54,Xanomeline Low Dose,54,2013-01-25,2013-01-25,2013-05-08,2013-05-08,2013-01-25,2013-01-25,2013-05-03,2013-05-03,NA,NA,2013-01-25T00:00:00Z,H,2013-05-03T23:59:59Z,H,2013-01-25,2013-05-03,99,DISCONTINUED,2013-05-08,ADVERSE EVENT,NA,NA,NA,Y,Y,2013-05-08,2013-01-15,-10
CDISCPILOT01,01-708-1316,1316,708,USA,74,YEARS,>=65,2,>50,3,F,WHITE,NOT HISPANIC OR LATINO,Placebo,Placebo,Pbo,Pbo,Placebo,0,Placebo,0,2013-08-23,2013-08-23,2014-03-01,2014-03-01,2013-08-23,2013-08-23,2014-03-01,2014-03-01,NA,NA,2013-08-23T00:00:00Z,H,2014-03-01T23:59:59Z,H,2013-08-23,2014-03-01,191,COMPLETED,2014-03-01,NA,NA,NA,NA,Y,Y,2014-03-01,2013-08-15,-8
CDISCPILOT01,01-708-1336,1336,708,USA,73,YEARS,>=65,2,>50,3,M,WHITE,NOT HISPANIC OR LATINO,Xanomeline High Dose,Xanomeline High Dose,Xan_Hi,Xan_Hi,Xanomeline High Dose,81,Xanomeline High Dose,81,2012-12-07,2012-12-07,2013-06-05,2013-06-05,2012-12-07,2012-12-07,2013-06-05,2013-06-05,NA,NA,2012-12-07T00:00:00Z,H,2013-06-05T23:59:59Z,H,2012-12-07,2013-06-05,181,COMPLETED,2013-06-05,NA,NA,NA,NA,Y,Y,2013-06-05,2012-11-21,-16
CDISCPILOT01,01-708-1342,1342,708,USA,59,YEARS,<65,1,>50,3,F,WHITE,NOT HISPANIC OR LATINO,Placebo,Placebo,Pbo,Pbo,Placebo,0,Placebo,0,2012-12-29,2012-12-29,2013-06-28,2013-06-28,2012-12-29,2012-12-29,2013-06-28,2013-06-28,NA,NA,2012-12-29T00:00:00Z,H,2013-06-28T23:59:59Z,H,2012-12-29,2013-06-28,182,COMPLETED,2013-06-28,NA,NA,NA,NA,Y,Y,2013-06-28,2012-12-21,-8
CDISCPILOT01,01-708-1347,1347,708,USA,61,YEARS,<65,1,>50,3,F,WHITE,NOT HISPANIC OR LATINO,Xanomeline High Dose,Xanomeline High Dose,Xan_Hi,Xan_Hi,Xanomeline High Dose,81,Xanomeline High Dose,81,2013-04-20,2013-04-20,2013-06-18,2013-06-18,2013-04-20,2013-04-20,2013-06-18,2013-06-18,NA,NA,2013-04-20T00:00:00Z,H,2013-06-18T23:59:59Z,H,2013-04-20,2013-06-18,60,DISCONTINUED,2013-06-18,ADVERSE EVENT,NA,NA,NA,Y,Y,2013-06-18,2013-04-11,-9
CDISCPILOT01,01-708-1348,1348,708,USA,79,YEARS,>=65,2,>50,3,F,WHITE,NOT HISPANIC OR LATINO,Xanomeline Low Dose,Xanomeline Low Dose,Xan_Lo,Xan_Lo,Xanomeline Low Dose,54,Xanomeline Low Dose,54,2013-08-05,2013-08-05,2014-02-13,2014-02-13,2013-08-05,2013-08-05,2014-02-13,2014-02-13,NA,NA,2013-08-05T00:00:00Z,H,2014-02-13T23:59:59Z,H,2013-08-05,2014-02-13,193,COMPLETED,2014-02-13,NA,NA,NA,NA,Y,Y,2014-02-13,2013-07-28,-8
CDISCPILOT01,01-708-1352,1352,708,USA,87,YEARS,>=65,2,>50,3,F,WHITE,NOT HISPANIC OR LATINO,Screen Failure,Screen Failure,Scrnfail,Scrnfail,Screen Failure,NA,Screen Failure,NA,NA,NA,NA,NA,NA,NA,NA,NA,NA,NA,NA,NA,NA,NA,NA,NA,NA,ONGOING,NA,NA,NA,NA,NA,N,N,2013-09-16,2013-09-16,NA
CDISCPILOT01,01-708-1353,1353,708,USA,87,YEARS,>=65,2,>50,3,F,BLACK OR AFRICAN AMERICAN,NOT HISPANIC OR LATINO,Xanomeline Low Dose,Xanomeline Low Dose,Xan_Lo,Xan_Lo,Xanomeline Low Dose,54,Xanomeline Low Dose,54,2013-07-04,2013-07-04,2013-09-10,2013-09-10,2013-07-04,2013-07-04,2013-08-28,2013-08-28,NA,NA,2013-07-04T00:00:00Z,H,2013-08-28T23:59:59Z,H,2013-07-04,2013-08-28,56,DISCONTINUED,2013-09-10,ADVERSE EVENT,NA,NA,NA,Y,Y,2013-09-10,2013-06-17,-17
CDISCPILOT01,01-708-1372,1372,708,USA,84,YEARS,>=65,2,>50,3,M,WHITE,NOT HISPANIC OR LATINO,Xanomeline High Dose,Xanomeline Low Dose,Xan_Hi,Xan_Lo,Xanomeline High Dose,81,Xanomeline Low Dose,54,2013-04-12,2013-04-12,2013-05-10,2013-05-10,2013-04-12,2013-04-12,2013-04-19,2013-04-19,NA,NA,2013-04-12T00:00:00Z,H,2013-04-19T23:59:59Z,H,2013-04-12,2013-04-19,8,DISCONTINUED,2013-05-10,PROTOCOL VIOLATION,NA,NA,NA,Y,Y,2013-05-10,2013-04-03,-9
CDISCPILOT01,01-708-1378,1378,708,USA,67,YEARS,>=65,2,>50,3,M,BLACK OR AFRICAN AMERICAN,NOT HISPANIC OR LATINO,Placebo,Placebo,Pbo,Pbo,Placebo,0,Placebo,0,2013-09-03,2013-09-03,2014-01-28,2014-01-28,2013-09-03,2013-09-03,2014-01-28,2014-01-28,NA,NA,2013-09-03T00:00:00Z,H,2014-01-28T23:59:59Z,H,2013-09-03,2014-01-28,148,DISCONTINUED,2014-01-28,STUDY TERMINATED BY SPONSOR,NA,NA,NA,Y,Y,2014-01-28,2013-08-24,-10
CDISCPILOT01,01-708-1406,1406,708,USA,71,YEARS,>=65,2,>50,3,F,WHITE,NOT HISPANIC OR LATINO,Xanomeline High Dose,Xanomeline High Dose,Xan_Hi,Xan_Hi,Xanomeline High Dose,81,Xanomeline High Dose,81,2013-12-26,2013-12-26,2014-07-02,2014-07-02,2013-12-26,2013-12-26,2014-07-02,2014-07-02,NA,NA,2013-12-26T00:00:00Z,H,2014-07-02T23:59:59Z,H,2013-12-26,2014-07-02,189,COMPLETED,2014-07-02,NA,NA,NA,NA,Y,Y,2014-07-02,2013-12-06,-20
CDISCPILOT01,01-708-1428,1428,708,USA,84,YEARS,>=65,2,>50,3,F,WHITE,NOT HISPANIC OR LATINO,Xanomeline Low Dose,Xanomeline Low Dose,Xan_Lo,Xan_Lo,Xanomeline Low Dose,54,Xanomeline Low Dose,54,2013-11-09,2013-11-09,2014-01-31,2014-01-31,2013-11-09,2013-11-09,2013-12-14,2013-12-14,NA,NA,2013-11-09T00:00:00Z,H,2013-12-14T23:59:59Z,H,2013-11-09,2013-12-14,36,DISCONTINUED,2014-01-31,ADVERSE EVENT,NA,NA,NA,Y,Y,2014-01-31,2013-11-02,-7
CDISCPILOT01,01-709-1001,1001,709,USA,76,YEARS,>=65,2,>50,3,F,WHITE,NOT HISPANIC OR LATINO,Placebo,Placebo,Pbo,Pbo,Placebo,0,Placebo,0,2013-10-08,2013-10-08,2014-04-08,2014-04-08,2013-10-08,2013-10-08,2014-04-08,2014-04-08,NA,NA,2013-10-08T00:00:00Z,H,2014-04-08T23:59:59Z,H,2013-10-08,2014-04-08,183,COMPLETED,2014-04-08,NA,NA,NA,NA,Y,Y,2014-04-08,2013-09-20,-18
CDISCPILOT01,01-709-1007,1007,709,USA,54,YEARS,<65,1,>50,3,F,WHITE,NOT HISPANIC OR LATINO,Xanomeline Low Dose,Xanomeline Low Dose,Xan_Lo,Xan_Lo,Xanomeline Low Dose,54,Xanomeline Low Dose,54,2012-07-31,2012-07-31,2012-09-01,2012-09-01,2012-07-31,2012-07-31,2012-08-28,2012-08-28,NA,NA,2012-07-31T00:00:00Z,H,2012-08-28T23:59:59Z,H,2012-07-31,2012-08-28,29,DISCONTINUED,2012-09-01,ADVERSE EVENT,NA,NA,NA,Y,Y,2012-09-01,2012-07-21,-10
CDISCPILOT01,01-709-1020,1020,709,USA,72,YEARS,>=65,2,>50,3,F,WHITE,NOT HISPANIC OR LATINO,Xanomeline Low Dose,Xanomeline Low Dose,Xan_Lo,Xan_Lo,Xanomeline Low Dose,54,Xanomeline Low Dose,54,2012-12-01,2012-12-01,2013-06-01,2013-06-01,2012-12-01,2012-12-01,2013-06-01,2013-06-01,NA,NA,2012-12-01T00:00:00Z,H,2013-06-01T23:59:59Z,H,2012-12-01,2013-06-01,183,COMPLETED,2013-06-01,NA,NA,NA,NA,Y,Y,2013-06-01,2012-11-22,-9
CDISCPILOT01,01-709-1029,1029,709,USA,82,YEARS,>=65,2,>50,3,M,WHITE,NOT HISPANIC OR LATINO,Xanomeline High Dose,Xanomeline High Dose,Xan_Hi,Xan_Hi,Xanomeline High Dose,81,Xanomeline High Dose,81,2012-12-25,2012-12-25,2013-06-26,2013-06-26,2012-12-25,2012-12-25,2013-06-26,2013-06-26,NA,NA,2012-12-25T00:00:00Z,H,2013-06-26T23:59:59Z,H,2012-12-25,2013-06-26,184,COMPLETED,2013-06-26,NA,NA,NA,NA,Y,Y,2013-06-26,2012-12-10,-15
CDISCPILOT01,01-709-1081,1081,709,USA,86,YEARS,>=65,2,>50,3,F,WHITE,NOT HISPANIC OR LATINO,Xanomeline Low Dose,Xanomeline Low Dose,Xan_Lo,Xan_Lo,Xanomeline Low Dose,54,Xanomeline Low Dose,54,2014-01-18,2014-01-18,2014-05-10,2014-05-10,2014-01-18,2014-01-18,2014-04-27,2014-04-27,NA,NA,2014-01-18T00:00:00Z,H,2014-04-27T23:59:59Z,H,2014-01-18,2014-04-27,100,DISCONTINUED,2014-05-10,ADVERSE EVENT,NA,NA,NA,Y,Y,2014-05-10,2014-01-09,-9
CDISCPILOT01,01-709-1088,1088,709,USA,69,YEARS,>=65,2,>50,3,M,WHITE,NOT HISPANIC OR LATINO,Placebo,Placebo,Pbo,Pbo,Placebo,0,Placebo,0,2014-04-12,2014-04-12,2014-10-09,2014-10-09,2014-04-12,2014-04-12,2014-10-09,2014-10-09,NA,NA,2014-04-12T00:00:00Z,H,2014-10-09T23:59:59Z,H,2014-04-12,2014-10-09,181,COMPLETED,2014-10-09,NA,NA,NA,NA,Y,Y,2014-10-09,2014-03-30,-13
CDISCPILOT01,01-709-1099,1099,709,USA,79,YEARS,>=65,2,>50,3,F,WHITE,NOT HISPANIC OR LATINO,Xanomeline High Dose,Xanomeline High Dose,Xan_Hi,Xan_Hi,Xanomeline High Dose,81,Xanomeline High Dose,81,2013-10-25,2013-10-25,2014-04-25,2014-04-25,2013-10-25,2013-10-25,2014-04-25,2014-04-25,NA,NA,2013-10-25T00:00:00Z,H,2014-04-25T23:59:59Z,H,2013-10-25,2014-04-25,183,COMPLETED,2014-04-25,NA,NA,NA,NA,Y,Y,2014-04-25,2013-10-14,-11
CDISCPILOT01,01-709-1102,1102,709,USA,71,YEARS,>=65,2,>50,3,F,WHITE,NOT HISPANIC OR LATINO,Xanomeline Low Dose,Xanomeline Low Dose,Xan_Lo,Xan_Lo,Xanomeline Low Dose,54,Xanomeline Low Dose,54,2013-01-15,2013-01-15,2013-03-31,2013-03-31,2013-01-15,2013-01-15,2013-03-27,2013-03-27,NA,NA,2013-01-15T00:00:00Z,H,2013-03-27T23:59:59Z,H,2013-01-15,2013-03-27,72,DISCONTINUED,2013-03-31,ADVERSE EVENT,NA,NA,NA,Y,Y,2013-03-31,2013-01-07,-8
CDISCPILOT01,01-709-1168,1168,709,USA,72,YEARS,>=65,2,>50,3,F,WHITE,NOT HISPANIC OR LATINO,Xanomeline High Dose,Xanomeline High Dose,Xan_Hi,Xan_Hi,Xanomeline High Dose,81,Xanomeline High Dose,81,2013-08-02,2013-08-02,2013-09-27,2013-09-27,2013-08-02,2013-08-02,2013-09-26,2013-09-26,NA,NA,2013-08-02T00:00:00Z,H,2013-09-26T23:59:59Z,H,2013-08-02,2013-09-26,56,DISCONTINUED,2013-09-27,ADVERSE EVENT,NA,NA,NA,Y,Y,2013-09-27,2013-07-25,-8
CDISCPILOT01,01-709-1217,1217,709,USA,77,YEARS,>=65,2,>50,3,M,WHITE,NOT HISPANIC OR LATINO,Xanomeline Low Dose,Xanomeline Low Dose,Xan_Lo,Xan_Lo,Xanomeline Low Dose,54,Xanomeline Low Dose,54,2013-03-04,2013-03-04,2013-06-25,2013-06-25,2013-03-04,2013-03-04,2013-06-11,2013-06-11,NA,NA,2013-03-04T00:00:00Z,H,2013-06-11T23:59:59Z,H,2013-03-04,2013-06-11,100,DISCONTINUED,2013-06-25,ADVERSE EVENT,NA,NA,NA,Y,Y,2013-06-25,2013-02-16,-16
CDISCPILOT01,01-709-1224,1224,709,USA,84,YEARS,>=65,2,>50,3,M,WHITE,NOT HISPANIC OR LATINO,Screen Failure,Screen Failure,Scrnfail,Scrnfail,Screen Failure,NA,Screen Failure,NA,NA,NA,NA,NA,NA,NA,NA,NA,NA,NA,NA,NA,NA,NA,NA,NA,NA,ONGOING,NA,NA,NA,NA,NA,N,N,2013-11-18,2013-11-18,NA
CDISCPILOT01,01-709-1237,1237,709,USA,88,YEARS,>=65,2,>50,3,F,WHITE,HISPANIC OR LATINO,Screen Failure,Screen Failure,Scrnfail,Scrnfail,Screen Failure,NA,Screen Failure,NA,NA,NA,NA,NA,NA,NA,NA,NA,NA,NA,NA,NA,NA,NA,NA,NA,NA,ONGOING,NA,NA,NA,NA,NA,N,N,2014-01-17,2014-01-17,NA
CDISCPILOT01,01-709-1238,1238,709,USA,69,YEARS,>=65,2,>50,3,M,WHITE,NOT HISPANIC OR LATINO,Xanomeline High Dose,Xanomeline High Dose,Xan_Hi,Xan_Hi,Xanomeline High Dose,81,Xanomeline High Dose,81,2013-05-15,2013-05-15,2013-08-07,2013-08-07,2013-05-15,2013-05-15,2013-08-06,2013-08-06,NA,NA,2013-05-15T00:00:00Z,H,2013-08-06T23:59:59Z,H,2013-05-15,2013-08-06,84,DISCONTINUED,2013-08-07,ADVERSE EVENT,NA,NA,NA,Y,Y,2013-08-07,2013-05-02,-13
CDISCPILOT01,01-709-1259,1259,709,USA,82,YEARS,>=65,2,>50,3,M,WHITE,NOT HISPANIC OR LATINO,Placebo,Placebo,Pbo,Pbo,Placebo,0,Placebo,0,2013-01-26,2013-01-26,2013-06-13,2013-06-13,2013-01-26,2013-01-26,2013-06-13,2013-06-13,NA,NA,2013-01-26T00:00:00Z,H,2013-06-13T23:59:59Z,H,2013-01-26,2013-06-13,139,DISCONTINUED,2013-06-13,LACK OF EFFICACY,NA,NA,NA,Y,Y,2013-06-13,2013-01-13,-13
CDISCPILOT01,01-709-1285,1285,709,USA,87,YEARS,>=65,2,>50,3,M,WHITE,NOT HISPANIC OR LATINO,Xanomeline Low Dose,Xanomeline Low Dose,Xan_Lo,Xan_Lo,Xanomeline Low Dose,54,Xanomeline Low Dose,54,2013-03-24,2013-03-24,2013-05-31,2013-05-31,2013-03-24,2013-03-24,2013-05-23,2013-05-23,NA,NA,2013-03-24T00:00:00Z,H,2013-05-23T23:59:59Z,H,2013-03-24,2013-05-23,61,DISCONTINUED,2013-05-31,STUDY TERMINATED BY SPONSOR,NA,NA,NA,Y,Y,2013-05-31,2013-03-17,-7
CDISCPILOT01,01-709-1301,1301,709,USA,62,YEARS,<65,1,>50,3,F,WHITE,NOT HISPANIC OR LATINO,Placebo,Placebo,Pbo,Pbo,Placebo,0,Placebo,0,2013-07-19,2013-07-19,2014-01-17,2014-01-17,2013-07-19,2013-07-19,2014-01-17,2014-01-17,NA,NA,2013-07-19T00:00:00Z,H,2014-01-17T23:59:59Z,H,2013-07-19,2014-01-17,183,COMPLETED,2014-01-17,NA,NA,NA,NA,Y,Y,2014-01-17,2013-07-14,-5
CDISCPILOT01,01-709-1306,1306,709,USA,60,YEARS,<65,1,>50,3,F,WHITE,NOT HISPANIC OR LATINO,Placebo,Placebo,Pbo,Pbo,Placebo,0,Placebo,0,2014-02-03,2014-02-03,2014-06-25,2014-06-25,2014-02-03,2014-02-03,2014-06-16,2014-06-16,NA,NA,2014-02-03T00:00:00Z,H,2014-06-16T23:59:59Z,H,2014-02-03,2014-06-16,134,DISCONTINUED,2014-06-25,ADVERSE EVENT,NA,NA,NA,Y,Y,2014-06-25,2014-01-19,-15
CDISCPILOT01,01-709-1309,1309,709,USA,65,YEARS,>=65,2,>50,3,M,WHITE,NOT HISPANIC OR LATINO,Xanomeline High Dose,Xanomeline High Dose,Xan_Hi,Xan_Hi,Xanomeline High Dose,81,Xanomeline High Dose,81,2013-06-19,2013-06-19,2013-12-19,2013-12-19,2013-06-19,2013-06-19,2013-12-19,2013-12-19,NA,NA,2013-06-19T00:00:00Z,H,2013-12-19T23:59:59Z,H,2013-06-19,2013-12-19,184,COMPLETED,2013-12-19,NA,NA,NA,NA,Y,Y,2013-12-19,2013-06-09,-10
CDISCPILOT01,01-709-1312,1312,709,USA,68,YEARS,>=65,2,>50,3,F,WHITE,NOT HISPANIC OR LATINO,Placebo,Placebo,Pbo,Pbo,Placebo,0,Placebo,0,2014-04-20,2014-04-20,2014-10-19,2014-10-19,2014-04-20,2014-04-20,2014-10-19,2014-10-19,NA,NA,2014-04-20T00:00:00Z,H,2014-10-19T23:59:59Z,H,2014-04-20,2014-10-19,183,COMPLETED,2014-10-19,NA,NA,NA,NA,Y,Y,2014-10-19,2014-04-13,-7
CDISCPILOT01,01-709-1326,1326,709,USA,75,YEARS,>=65,2,>50,3,F,WHITE,NOT HISPANIC OR LATINO,Xanomeline Low Dose,Xanomeline Low Dose,Xan_Lo,Xan_Lo,Xanomeline Low Dose,54,Xanomeline Low Dose,54,2013-04-05,2013-04-05,2013-10-02,2013-10-02,2013-04-05,2013-04-05,2013-10-02,2013-10-02,NA,NA,2013-04-05T00:00:00Z,H,2013-10-02T23:59:59Z,H,2013-04-05,2013-10-02,181,COMPLETED,2013-10-02,NA,NA,NA,NA,Y,Y,2013-10-02,2013-03-21,-15
CDISCPILOT01,01-709-1329,1329,709,USA,70,YEARS,>=65,2,>50,3,M,WHITE,NOT HISPANIC OR LATINO,Xanomeline High Dose,Xanomeline Low Dose,Xan_Hi,Xan_Lo,Xanomeline High Dose,81,Xanomeline Low Dose,54,2013-08-15,2013-08-15,2013-08-29,2013-08-29,2013-08-15,2013-08-15,2013-08-25,2013-08-25,NA,NA,2013-08-15T00:00:00Z,H,2013-08-25T23:59:59Z,H,2013-08-15,2013-08-25,11,DISCONTINUED,2013-08-29,WITHDRAWAL BY SUBJECT,NA,NA,NA,Y,Y,2013-08-29,2013-08-01,-14
CDISCPILOT01,01-709-1339,1339,709,USA,81,YEARS,>=65,2,>50,3,M,WHITE,NOT HISPANIC OR LATINO,Placebo,Placebo,Pbo,Pbo,Placebo,0,Placebo,0,2012-12-23,2012-12-23,2013-06-24,2013-06-24,2012-12-23,2012-12-23,2013-06-24,2013-06-24,NA,NA,2012-12-23T00:00:00Z,H,2013-06-24T23:59:59Z,H,2012-12-23,2013-06-24,184,COMPLETED,2013-06-24,NA,NA,NA,NA,Y,Y,2013-06-24,2012-12-15,-8
CDISCPILOT01,01-709-1424,1424,709,USA,77,YEARS,>=65,2,>50,3,M,WHITE,NOT HISPANIC OR LATINO,Xanomeline High Dose,Xanomeline Low Dose,Xan_Hi,Xan_Lo,Xanomeline High Dose,81,Xanomeline Low Dose,54,2013-03-03,2013-03-03,2013-03-08,2013-03-08,2013-03-03,2013-03-03,2013-03-07,2013-03-07,NA,NA,2013-03-03T00:00:00Z,H,2013-03-07T23:59:59Z,H,2013-03-03,2013-03-07,5,DISCONTINUED,2013-03-08,ADVERSE EVENT,NA,NA,NA,Y,Y,2013-03-17,2013-02-15,-16
CDISCPILOT01,01-710-1002,1002,710,USA,88,YEARS,>=65,2,>50,3,M,WHITE,NOT HISPANIC OR LATINO,Xanomeline Low Dose,Xanomeline Low Dose,Xan_Lo,Xan_Lo,Xanomeline Low Dose,54,Xanomeline Low Dose,54,2014-01-14,2014-01-14,2014-01-18,2014-01-18,2014-01-14,2014-01-14,2014-01-18,2014-01-18,NA,NA,2014-01-14T00:00:00Z,H,2014-01-18T23:59:59Z,H,2014-01-14,2014-01-18,5,DISCONTINUED,2014-01-18,ADVERSE EVENT,NA,NA,NA,Y,Y,2014-01-18,2013-12-30,-15
CDISCPILOT01,01-710-1006,1006,710,USA,77,YEARS,>=65,2,>50,3,M,WHITE,NOT HISPANIC OR LATINO,Xanomeline High Dose,Xanomeline High Dose,Xan_Hi,Xan_Hi,Xanomeline High Dose,81,Xanomeline High Dose,81,2013-02-10,2013-02-10,2013-08-10,2013-08-10,2013-02-10,2013-02-10,2013-08-09,2013-08-09,NA,NA,2013-02-10T00:00:00Z,H,2013-08-09T23:59:59Z,H,2013-02-10,2013-08-09,181,COMPLETED,2013-08-10,NA,NA,NA,NA,Y,Y,2013-08-10,2013-01-27,-14
CDISCPILOT01,01-710-1021,1021,710,USA,79,YEARS,>=65,2,>50,3,M,BLACK OR AFRICAN AMERICAN,NOT HISPANIC OR LATINO,Xanomeline High Dose,Xanomeline High Dose,Xan_Hi,Xan_Hi,Xanomeline High Dose,81,Xanomeline High Dose,81,2013-09-27,2013-09-27,2013-11-12,2013-11-12,2013-09-27,2013-09-27,2013-10-29,2013-10-29,NA,NA,2013-09-27T00:00:00Z,H,2013-10-29T23:59:59Z,H,2013-09-27,2013-10-29,33,DISCONTINUED,2013-11-12,ADVERSE EVENT,NA,NA,NA,Y,Y,2013-11-12,2013-09-19,-8
CDISCPILOT01,01-710-1027,1027,710,USA,83,YEARS,>=65,2,>50,3,M,WHITE,NOT HISPANIC OR LATINO,Placebo,Placebo,Pbo,Pbo,Placebo,0,Placebo,0,2014-02-28,2014-02-28,2014-08-29,2014-08-29,2014-02-28,2014-02-28,2014-08-29,2014-08-29,NA,NA,2014-02-28T00:00:00Z,H,2014-08-29T23:59:59Z,H,2014-02-28,2014-08-29,183,COMPLETED,2014-08-29,NA,NA,NA,NA,Y,Y,2014-08-29,2014-02-03,-25
CDISCPILOT01,01-710-1045,1045,710,USA,83,YEARS,>=65,2,>50,3,F,WHITE,NOT HISPANIC OR LATINO,Xanomeline Low Dose,Xanomeline Low Dose,Xan_Lo,Xan_Lo,Xanomeline Low Dose,54,Xanomeline Low Dose,54,2013-06-03,2013-06-03,2013-08-17,2013-08-17,2013-06-03,2013-06-03,2013-08-13,2013-08-13,NA,NA,2013-06-03T00:00:00Z,H,2013-08-13T23:59:59Z,H,2013-06-03,2013-08-13,72,DISCONTINUED,2013-08-17,ADVERSE EVENT,NA,NA,NA,Y,Y,2013-08-17,2013-05-20,-14
CDISCPILOT01,01-710-1053,1053,710,USA,84,YEARS,>=65,2,>50,3,F,WHITE,NOT HISPANIC OR LATINO,Xanomeline Low Dose,Xanomeline Low Dose,Xan_Lo,Xan_Lo,Xanomeline Low Dose,54,Xanomeline Low Dose,54,2012-12-26,2012-12-26,2013-02-15,2013-02-15,2012-12-26,2012-12-26,2013-02-10,2013-02-10,NA,NA,2012-12-26T00:00:00Z,H,2013-02-10T23:59:59Z,H,2012-12-26,2013-02-10,47,DISCONTINUED,2013-02-15,ADVERSE EVENT,NA,NA,NA,Y,Y,2013-02-26,2012-12-15,-11
CDISCPILOT01,01-710-1060,1060,710,USA,82,YEARS,>=65,2,>50,3,M,WHITE,NOT HISPANIC OR LATINO,Placebo,Placebo,Pbo,Pbo,Placebo,0,Placebo,0,2013-01-01,2013-01-01,2013-07-05,2013-07-05,2013-01-01,2013-01-01,2013-07-05,2013-07-05,NA,NA,2013-01-01T00:00:00Z,H,2013-07-05T23:59:59Z,H,2013-01-01,2013-07-05,186,COMPLETED,2013-07-05,NA,NA,NA,NA,Y,Y,2013-07-05,2012-12-24,-8
CDISCPILOT01,01-710-1070,1070,710,USA,85,YEARS,>=65,2,>50,3,F,WHITE,NOT HISPANIC OR LATINO,Xanomeline High Dose,Xanomeline High Dose,Xan_Hi,Xan_Hi,Xanomeline High Dose,81,Xanomeline High Dose,81,2012-09-08,2012-09-08,2013-02-23,2013-02-23,2012-09-08,2012-09-08,2013-01-22,2013-01-22,NA,NA,2012-09-08T00:00:00Z,H,2013-01-22T23:59:59Z,H,2012-09-08,2013-01-22,137,DISCONTINUED,2013-02-23,ADVERSE EVENT,NA,NA,NA,Y,Y,2013-02-23,2012-08-28,-11
CDISCPILOT01,01-710-1077,1077,710,USA,76,YEARS,>=65,2,>50,3,F,WHITE,NOT HISPANIC OR LATINO,Placebo,Placebo,Pbo,Pbo,Placebo,0,Placebo,0,2013-11-17,2013-11-17,2014-05-18,2014-05-18,2013-11-17,2013-11-17,2014-05-18,2014-05-18,NA,NA,2013-11-17T00:00:00Z,H,2014-05-18T23:59:59Z,H,2013-11-17,2014-05-18,183,COMPLETED,2014-05-18,NA,NA,NA,NA,Y,Y,2014-05-18,2013-11-03,-14
CDISCPILOT01,01-710-1078,1078,710,USA,81,YEARS,>=65,2,>50,3,F,WHITE,NOT HISPANIC OR LATINO,Placebo,Placebo,Pbo,Pbo,Placebo,0,Placebo,0,2013-09-17,2013-09-17,2014-03-23,2014-03-23,2013-09-17,2013-09-17,2014-03-23,2014-03-23,NA,NA,2013-09-17T00:00:00Z,H,2014-03-23T23:59:59Z,H,2013-09-17,2014-03-23,188,COMPLETED,2014-03-23,NA,NA,NA,NA,Y,Y,2014-03-23,2013-09-06,-11
CDISCPILOT01,01-710-1083,1083,710,USA,89,YEARS,>=65,2,>50,3,F,WHITE,NOT HISPANIC OR LATINO,Placebo,Placebo,Pbo,Pbo,Placebo,0,Placebo,0,2013-07-22,2013-07-22,2013-08-03,2013-08-03,2013-07-22,2013-07-22,2013-08-01,2013-08-01,NA,NA,2013-07-22T00:00:00Z,H,2013-08-01T23:59:59Z,H,2013-07-22,2013-08-01,11,DISCONTINUED,2013-08-02,DEATH,Y,2013-08-02,2013-08-02,Y,Y,2013-08-02,2013-07-09,-13
CDISCPILOT01,01-710-1129,1129,710,USA,69,YEARS,>=65,2,>50,3,F,BLACK OR AFRICAN AMERICAN,NOT HISPANIC OR LATINO,Screen Failure,Screen Failure,Scrnfail,Scrnfail,Screen Failure,NA,Screen Failure,NA,NA,NA,NA,NA,NA,NA,NA,NA,NA,NA,NA,NA,NA,NA,NA,NA,NA,ONGOING,NA,NA,NA,NA,NA,N,N,2013-03-05,2013-03-05,NA
CDISCPILOT01,01-710-1137,1137,710,USA,79,YEARS,>=65,2,>50,3,F,BLACK OR AFRICAN AMERICAN,NOT HISPANIC OR LATINO,Xanomeline High Dose,Xanomeline High Dose,Xan_Hi,Xan_Hi,Xanomeline High Dose,81,Xanomeline High Dose,81,2013-10-11,2013-10-11,2013-11-13,2013-11-13,2013-10-11,2013-10-11,2013-11-13,2013-11-13,NA,NA,2013-10-11T00:00:00Z,H,2013-11-13T23:59:59Z,H,2013-10-11,2013-11-13,34,DISCONTINUED,2013-11-13,ADVERSE EVENT,NA,NA,NA,Y,Y,2013-11-13,2013-10-03,-8
CDISCPILOT01,01-710-1142,1142,710,USA,76,YEARS,>=65,2,>50,3,F,WHITE,NOT HISPANIC OR LATINO,Xanomeline High Dose,Xanomeline High Dose,Xan_Hi,Xan_Hi,Xanomeline High Dose,81,Xanomeline High Dose,81,2012-10-02,2012-10-02,2012-10-23,2012-10-23,2012-10-02,2012-10-02,2012-10-20,2012-10-20,NA,NA,2012-10-02T00:00:00Z,H,2012-10-20T23:59:59Z,H,2012-10-02,2012-10-20,19,DISCONTINUED,2012-10-23,ADVERSE EVENT,NA,NA,NA,Y,Y,2012-10-23,2012-09-12,-20
CDISCPILOT01,01-710-1149,1149,710,USA,79,YEARS,>=65,2,>50,3,F,WHITE,NOT HISPANIC OR LATINO,Screen Failure,Screen Failure,Scrnfail,Scrnfail,Screen Failure,NA,Screen Failure,NA,NA,NA,NA,NA,NA,NA,NA,NA,NA,NA,NA,NA,NA,NA,NA,NA,NA,ONGOING,NA,NA,NA,NA,NA,N,N,2013-11-16,2013-11-16,NA
CDISCPILOT01,01-710-1154,1154,710,USA,84,YEARS,>=65,2,>50,3,M,WHITE,HISPANIC OR LATINO,Xanomeline Low Dose,Xanomeline Low Dose,Xan_Lo,Xan_Lo,Xanomeline Low Dose,54,Xanomeline Low Dose,54,2014-03-29,2014-03-29,2014-05-09,2014-05-09,2014-03-29,2014-03-29,2014-04-27,2014-04-27,NA,NA,2014-03-29T00:00:00Z,H,2014-04-27T23:59:59Z,H,2014-03-29,2014-04-27,30,DISCONTINUED,2014-05-09,ADVERSE EVENT,NA,NA,NA,Y,Y,2014-05-09,2014-03-08,-21
CDISCPILOT01,01-710-1166,1166,710,USA,81,YEARS,>=65,2,>50,3,F,WHITE,NOT HISPANIC OR LATINO,Xanomeline Low Dose,Xanomeline Low Dose,Xan_Lo,Xan_Lo,Xanomeline Low Dose,54,Xanomeline Low Dose,54,2012-11-30,2012-11-30,2013-03-30,2013-03-30,2012-11-30,2012-11-30,2013-03-19,2013-03-19,NA,NA,2012-11-30T00:00:00Z,H,2013-03-19T23:59:59Z,H,2012-11-30,2013-03-19,110,DISCONTINUED,2013-03-30,ADVERSE EVENT,NA,NA,NA,Y,Y,2013-03-30,2012-11-10,-20
CDISCPILOT01,01-710-1183,1183,710,USA,80,YEARS,>=65,2,>50,3,F,WHITE,NOT HISPANIC OR LATINO,Placebo,Placebo,Pbo,Pbo,Placebo,0,Placebo,0,2013-11-16,2013-11-16,2014-05-17,2014-05-17,2013-11-16,2013-11-16,2014-05-17,2014-05-17,NA,NA,2013-11-16T00:00:00Z,H,2014-05-17T23:59:59Z,H,2013-11-16,2014-05-17,183,COMPLETED,2014-05-17,NA,NA,NA,NA,Y,Y,2014-05-17,2013-10-24,-23
CDISCPILOT01,01-710-1187,1187,710,USA,78,YEARS,>=65,2,>50,3,F,WHITE,NOT HISPANIC OR LATINO,Xanomeline High Dose,Xanomeline High Dose,Xan_Hi,Xan_Hi,Xanomeline High Dose,81,Xanomeline High Dose,81,2012-11-10,2012-11-10,2013-05-12,2013-05-12,2012-11-10,2012-11-10,2013-05-12,2013-05-12,NA,NA,2012-11-10T00:00:00Z,H,2013-05-12T23:59:59Z,H,2012-11-10,2013-05-12,184,COMPLETED,2013-05-12,NA,NA,NA,NA,Y,Y,2013-05-12,2012-10-26,-15
CDISCPILOT01,01-710-1235,1235,710,USA,56,YEARS,<65,1,>50,3,F,WHITE,HISPANIC OR LATINO,Xanomeline Low Dose,Xanomeline Low Dose,Xan_Lo,Xan_Lo,Xanomeline Low Dose,54,Xanomeline Low Dose,54,2012-09-26,2012-09-26,2013-03-27,2013-03-27,2012-09-26,2012-09-26,2013-03-27,2013-03-27,NA,NA,2012-09-26T00:00:00Z,H,2013-03-27T23:59:59Z,H,2012-09-26,2013-03-27,183,COMPLETED,2013-03-27,NA,NA,NA,NA,Y,Y,2013-03-27,2012-09-13,-13
CDISCPILOT01,01-710-1249,1249,710,USA,79,YEARS,>=65,2,>50,3,M,WHITE,NOT HISPANIC OR LATINO,Xanomeline High Dose,Xanomeline High Dose,Xan_Hi,Xan_Hi,Xanomeline High Dose,81,Xanomeline High Dose,81,2013-12-28,2013-12-28,2014-06-28,2014-06-28,2013-12-28,2013-12-28,2014-06-28,2014-06-28,NA,NA,2013-12-28T00:00:00Z,H,2014-06-28T23:59:59Z,H,2013-12-28,2014-06-28,183,COMPLETED,2014-06-28,NA,NA,NA,NA,Y,Y,2014-06-28,2013-12-19,-9
CDISCPILOT01,01-710-1257,1257,710,USA,85,YEARS,>=65,2,>50,3,F,WHITE,NOT HISPANIC OR LATINO,Screen Failure,Screen Failure,Scrnfail,Scrnfail,Screen Failure,NA,Screen Failure,NA,NA,NA,NA,NA,NA,NA,NA,NA,NA,NA,NA,NA,NA,NA,NA,NA,NA,ONGOING,NA,NA,NA,NA,NA,N,N,2013-11-29,2013-11-29,NA
CDISCPILOT01,01-710-1264,1264,710,USA,78,YEARS,>=65,2,>50,3,M,WHITE,NOT HISPANIC OR LATINO,Placebo,Placebo,Pbo,Pbo,Placebo,0,Placebo,0,2013-06-13,2013-06-13,2013-10-12,2013-10-12,2013-06-13,2013-06-13,2013-10-11,2013-10-11,NA,NA,2013-06-13T00:00:00Z,H,2013-10-11T23:59:59Z,H,2013-06-13,2013-10-11,121,DISCONTINUED,2013-10-12,ADVERSE EVENT,NA,NA,NA,Y,Y,2013-10-12,2013-06-02,-11
CDISCPILOT01,01-710-1270,1270,710,USA,83,YEARS,>=65,2,>50,3,F,WHITE,NOT HISPANIC OR LATINO,Xanomeline Low Dose,Xanomeline Low Dose,Xan_Lo,Xan_Lo,Xanomeline Low Dose,54,Xanomeline Low Dose,54,2014-02-12,2014-02-12,2014-03-01,2014-03-01,2014-02-12,2014-02-12,2014-03-01,2014-03-01,NA,NA,2014-02-12T00:00:00Z,H,2014-03-01T23:59:59Z,H,2014-02-12,2014-03-01,18,DISCONTINUED,2014-03-01,ADVERSE EVENT,NA,NA,NA,Y,Y,2014-03-01,2014-02-01,-11
CDISCPILOT01,01-710-1271,1271,710,USA,86,YEARS,>=65,2,>50,3,F,WHITE,NOT HISPANIC OR LATINO,Placebo,Placebo,Pbo,Pbo,Placebo,0,Placebo,0,2012-09-27,2012-09-27,2012-12-02,2012-12-02,2012-09-27,2012-09-27,2012-11-21,2012-11-21,NA,NA,2012-09-27T00:00:00Z,H,2012-11-21T23:59:59Z,H,2012-09-27,2012-11-21,56,DISCONTINUED,2012-12-02,ADVERSE EVENT,NA,NA,NA,Y,Y,2012-12-02,2012-09-04,-23
CDISCPILOT01,01-710-1278,1278,710,USA,81,YEARS,>=65,2,>50,3,M,WHITE,NOT HISPANIC OR LATINO,Xanomeline High Dose,Xanomeline High Dose,Xan_Hi,Xan_Hi,Xanomeline High Dose,81,Xanomeline High Dose,81,2012-12-24,2012-12-24,2013-03-03,2013-03-03,2012-12-24,2012-12-24,2013-02-26,2013-02-26,NA,NA,2012-12-24T00:00:00Z,H,2013-02-26T23:59:59Z,H,2012-12-24,2013-02-26,65,DISCONTINUED,2013-03-03,ADVERSE EVENT,NA,NA,NA,Y,Y,2013-03-07,2012-12-13,-11
CDISCPILOT01,01-710-1300,1300,710,USA,78,YEARS,>=65,2,>50,3,F,WHITE,NOT HISPANIC OR LATINO,Xanomeline Low Dose,Xanomeline Low Dose,Xan_Lo,Xan_Lo,Xanomeline Low Dose,54,Xanomeline Low Dose,54,2012-12-15,2012-12-15,2013-02-19,2013-02-19,2012-12-15,2012-12-15,2013-02-15,2013-02-15,NA,NA,2012-12-15T00:00:00Z,H,2013-02-15T23:59:59Z,H,2012-12-15,2013-02-15,63,DISCONTINUED,2013-02-19,ADVERSE EVENT,NA,NA,NA,Y,Y,2013-02-19,2012-12-04,-11
CDISCPILOT01,01-710-1314,1314,710,USA,78,YEARS,>=65,2,>50,3,F,WHITE,NOT HISPANIC OR LATINO,Placebo,Placebo,Pbo,Pbo,Placebo,0,Placebo,0,2013-04-24,2013-04-24,2013-05-25,2013-05-25,2013-04-24,2013-04-24,2013-05-23,2013-05-23,NA,NA,2013-04-24T00:00:00Z,H,2013-05-23T23:59:59Z,H,2013-04-24,2013-05-23,30,DISCONTINUED,2013-05-25,WITHDRAWAL BY SUBJECT,NA,NA,NA,Y,Y,2013-05-25,2013-04-21,-3
CDISCPILOT01,01-710-1315,1315,710,USA,83,YEARS,>=65,2,>50,3,F,WHITE,NOT HISPANIC OR LATINO,Placebo,Placebo,Pbo,Pbo,Placebo,0,Placebo,0,2013-02-27,2013-02-27,2013-07-16,2013-07-16,2013-02-27,2013-02-27,2013-07-06,2013-07-06,NA,NA,2013-02-27T00:00:00Z,H,2013-07-06T23:59:59Z,H,2013-02-27,2013-07-06,130,DISCONTINUED,2013-07-16,ADVERSE EVENT,NA,NA,NA,Y,Y,2013-07-16,2013-02-12,-15
CDISCPILOT01,01-710-1337,1337,710,USA,73,YEARS,>=65,2,>50,3,M,WHITE,NOT HISPANIC OR LATINO,Screen Failure,Screen Failure,Scrnfail,Scrnfail,Screen Failure,NA,Screen Failure,NA,NA,NA,NA,NA,NA,NA,NA,NA,NA,NA,NA,NA,NA,NA,NA,NA,NA,ONGOING,NA,NA,NA,NA,NA,N,N,2013-12-30,2013-12-30,NA
CDISCPILOT01,01-710-1354,1354,710,USA,73,YEARS,>=65,2,>50,3,M,WHITE,NOT HISPANIC OR LATINO,Xanomeline High Dose,Xanomeline High Dose,Xan_Hi,Xan_Hi,Xanomeline High Dose,81,Xanomeline High Dose,81,2012-11-11,2012-11-11,2013-05-01,2013-05-01,2012-11-11,2012-11-11,2013-05-01,2013-05-01,NA,NA,2012-11-11T00:00:00Z,H,2013-05-01T23:59:59Z,H,2012-11-11,2013-05-01,172,COMPLETED,2013-05-01,NA,NA,NA,NA,Y,Y,2013-05-01,2012-10-29,-13
CDISCPILOT01,01-710-1358,1358,710,USA,82,YEARS,>=65,2,>50,3,M,WHITE,NOT HISPANIC OR LATINO,Xanomeline Low Dose,Xanomeline Low Dose,Xan_Lo,Xan_Lo,Xanomeline Low Dose,54,Xanomeline Low Dose,54,2012-09-17,2012-09-17,2013-03-12,2013-03-12,2012-09-17,2012-09-17,2013-02-09,2013-02-09,NA,NA,2012-09-17T00:00:00Z,H,2013-02-09T23:59:59Z,H,2012-09-17,2013-02-09,146,DISCONTINUED,2013-03-12,WITHDRAWAL BY SUBJECT,NA,NA,NA,Y,Y,2013-03-12,2012-09-02,-15
CDISCPILOT01,01-710-1368,1368,710,USA,88,YEARS,>=65,2,>50,3,F,WHITE,NOT HISPANIC OR LATINO,Placebo,Placebo,Pbo,Pbo,Placebo,0,Placebo,0,2013-10-23,2013-10-23,2014-04-24,2014-04-24,2013-10-23,2013-10-23,2014-04-24,2014-04-24,NA,NA,2013-10-23T00:00:00Z,H,2014-04-24T23:59:59Z,H,2013-10-23,2014-04-24,184,COMPLETED,2014-04-24,NA,NA,NA,NA,Y,Y,2014-04-24,2013-10-21,-2
CDISCPILOT01,01-710-1376,1376,710,USA,89,YEARS,>=65,2,>50,3,F,WHITE,NOT HISPANIC OR LATINO,Screen Failure,Screen Failure,Scrnfail,Scrnfail,Screen Failure,NA,Screen Failure,NA,NA,NA,NA,NA,NA,NA,NA,NA,NA,NA,NA,NA,NA,NA,NA,NA,NA,ONGOING,NA,NA,NA,NA,NA,N,N,2014-04-21,2014-04-21,NA
CDISCPILOT01,01-710-1380,1380,710,USA,80,YEARS,>=65,2,>50,3,F,WHITE,NOT HISPANIC OR LATINO,Screen Failure,Screen Failure,Scrnfail,Scrnfail,Screen Failure,NA,Screen Failure,NA,NA,NA,NA,NA,NA,NA,NA,NA,NA,NA,NA,NA,NA,NA,NA,NA,NA,ONGOING,NA,NA,NA,NA,NA,N,N,2013-06-02,2013-06-02,NA
CDISCPILOT01,01-710-1385,1385,710,USA,77,YEARS,>=65,2,>50,3,M,WHITE,NOT HISPANIC OR LATINO,Xanomeline Low Dose,Xanomeline Low Dose,Xan_Lo,Xan_Lo,Xanomeline Low Dose,54,Xanomeline Low Dose,54,2012-10-29,2012-10-29,2013-02-18,2013-02-18,2012-10-29,2012-10-29,2013-02-18,2013-02-18,NA,NA,2012-10-29T00:00:00Z,H,2013-02-18T23:59:59Z,H,2012-10-29,2013-02-18,113,DISCONTINUED,2013-02-18,ADVERSE EVENT,NA,NA,NA,Y,Y,2013-02-18,2012-10-21,-8
CDISCPILOT01,01-710-1408,1408,710,USA,80,YEARS,>=65,2,>50,3,M,WHITE,NOT HISPANIC OR LATINO,Xanomeline High Dose,Xanomeline High Dose,Xan_Hi,Xan_Hi,Xanomeline High Dose,81,Xanomeline High Dose,81,2013-01-05,2013-01-05,2013-07-12,2013-07-12,2013-01-05,2013-01-05,2013-07-12,2013-07-12,NA,NA,2013-01-05T00:00:00Z,H,2013-07-12T23:59:59Z,H,2013-01-05,2013-07-12,189,COMPLETED,2013-07-12,NA,NA,NA,NA,Y,Y,2013-07-12,2012-12-26,-10
CDISCPILOT01,01-710-1443,1443,710,USA,88,YEARS,>=65,2,>50,3,F,WHITE,NOT HISPANIC OR LATINO,Screen Failure,Screen Failure,Scrnfail,Scrnfail,Screen Failure,NA,Screen Failure,NA,NA,NA,NA,NA,NA,NA,NA,NA,NA,NA,NA,NA,NA,NA,NA,NA,NA,ONGOING,NA,NA,NA,NA,NA,N,N,2013-12-13,2013-12-13,NA
CDISCPILOT01,01-711-1012,1012,711,USA,67,YEARS,>=65,2,>50,3,F,WHITE,NOT HISPANIC OR LATINO,Xanomeline High Dose,Xanomeline High Dose,Xan_Hi,Xan_Hi,Xanomeline High Dose,81,Xanomeline High Dose,81,2013-04-03,2013-04-03,2013-05-02,2013-05-02,2013-04-03,2013-04-03,2013-04-29,2013-04-29,NA,NA,2013-04-03T00:00:00Z,H,2013-04-29T23:59:59Z,H,2013-04-03,2013-04-29,27,DISCONTINUED,2013-05-02,ADVERSE EVENT,NA,NA,NA,Y,Y,2013-09-18,2013-03-20,-14
CDISCPILOT01,01-711-1022,1022,711,USA,86,YEARS,>=65,2,>50,3,F,WHITE,NOT HISPANIC OR LATINO,Screen Failure,Screen Failure,Scrnfail,Scrnfail,Screen Failure,NA,Screen Failure,NA,NA,NA,NA,NA,NA,NA,NA,NA,NA,NA,NA,NA,NA,NA,NA,NA,NA,ONGOING,NA,NA,NA,NA,NA,N,N,2014-03-17,2014-03-17,NA
CDISCPILOT01,01-711-1036,1036,711,USA,70,YEARS,>=65,2,>50,3,M,BLACK OR AFRICAN AMERICAN,NOT HISPANIC OR LATINO,Placebo,Placebo,Pbo,Pbo,Placebo,0,Placebo,0,2012-07-29,2012-07-29,2013-02-10,2013-02-10,2012-07-29,2012-07-29,2013-02-10,2013-02-10,NA,NA,2012-07-29T00:00:00Z,H,2013-02-10T23:59:59Z,H,2012-07-29,2013-02-10,197,COMPLETED,2013-02-10,NA,NA,NA,NA,Y,Y,2013-02-10,2012-07-20,-9
CDISCPILOT01,01-711-1143,1143,711,USA,76,YEARS,>=65,2,>50,3,F,WHITE,NOT HISPANIC OR LATINO,Xanomeline Low Dose,Xanomeline Low Dose,Xan_Lo,Xan_Lo,Xanomeline Low Dose,54,Xanomeline Low Dose,54,2013-04-03,2013-04-03,2013-06-01,2013-06-01,2013-04-03,2013-04-03,2013-05-30,2013-05-30,NA,NA,2013-04-03T00:00:00Z,H,2013-05-30T23:59:59Z,H,2013-04-03,2013-05-30,58,DISCONTINUED,2013-06-01,ADVERSE EVENT,NA,NA,NA,Y,Y,2013-09-22,2013-03-30,-4
CDISCPILOT01,01-711-1163,1163,711,USA,74,YEARS,>=65,2,>50,3,F,BLACK OR AFRICAN AMERICAN,NOT HISPANIC OR LATINO,Screen Failure,Screen Failure,Scrnfail,Scrnfail,Screen Failure,NA,Screen Failure,NA,NA,NA,NA,NA,NA,NA,NA,NA,NA,NA,NA,NA,NA,NA,NA,NA,NA,ONGOING,NA,NA,NA,NA,NA,N,N,2012-11-08,2012-11-08,NA
CDISCPILOT01,01-711-1173,1173,711,USA,62,YEARS,<65,1,>50,3,M,WHITE,NOT HISPANIC OR LATINO,Screen Failure,Screen Failure,Scrnfail,Scrnfail,Screen Failure,NA,Screen Failure,NA,NA,NA,NA,NA,NA,NA,NA,NA,NA,NA,NA,NA,NA,NA,NA,NA,NA,ONGOING,NA,NA,NA,NA,NA,N,N,2012-10-04,2012-10-04,NA
CDISCPILOT01,01-711-1226,1226,711,USA,74,YEARS,>=65,2,>50,3,F,WHITE,NOT HISPANIC OR LATINO,Screen Failure,Screen Failure,Scrnfail,Scrnfail,Screen Failure,NA,Screen Failure,NA,NA,NA,NA,NA,NA,NA,NA,NA,NA,NA,NA,NA,NA,NA,NA,NA,NA,ONGOING,NA,NA,NA,NA,NA,N,N,2013-10-24,2013-10-24,NA
CDISCPILOT01,01-711-1251,1251,711,USA,82,YEARS,>=65,2,>50,3,M,WHITE,NOT HISPANIC OR LATINO,Screen Failure,Screen Failure,Scrnfail,Scrnfail,Screen Failure,NA,Screen Failure,NA,NA,NA,NA,NA,NA,NA,NA,NA,NA,NA,NA,NA,NA,NA,NA,NA,NA,ONGOING,NA,NA,NA,NA,NA,N,N,2014-02-28,2014-02-28,NA
CDISCPILOT01,01-711-1283,1283,711,USA,75,YEARS,>=65,2,>50,3,F,BLACK OR AFRICAN AMERICAN,NOT HISPANIC OR LATINO,Screen Failure,Screen Failure,Scrnfail,Scrnfail,Screen Failure,NA,Screen Failure,NA,NA,NA,NA,NA,NA,NA,NA,NA,NA,NA,NA,NA,NA,NA,NA,NA,NA,ONGOING,NA,NA,NA,NA,NA,N,N,2014-03-27,2014-03-27,NA
CDISCPILOT01,01-711-1284,1284,711,USA,77,YEARS,>=65,2,>50,3,F,WHITE,NOT HISPANIC OR LATINO,Screen Failure,Screen Failure,Scrnfail,Scrnfail,Screen Failure,NA,Screen Failure,NA,NA,NA,NA,NA,NA,NA,NA,NA,NA,NA,NA,NA,NA,NA,NA,NA,NA,ONGOING,NA,NA,NA,NA,NA,N,N,2013-08-05,2013-08-05,NA
CDISCPILOT01,01-711-1290,1290,711,USA,61,YEARS,<65,1,>50,3,F,WHITE,NOT HISPANIC OR LATINO,Screen Failure,Screen Failure,Scrnfail,Scrnfail,Screen Failure,NA,Screen Failure,NA,NA,NA,NA,NA,NA,NA,NA,NA,NA,NA,NA,NA,NA,NA,NA,NA,NA,ONGOING,NA,NA,NA,NA,NA,N,N,2013-12-20,2013-12-20,NA
CDISCPILOT01,01-711-1433,1433,711,USA,84,YEARS,>=65,2,>50,3,F,WHITE,NOT HISPANIC OR LATINO,Xanomeline High Dose,Xanomeline Low Dose,Xan_Hi,Xan_Lo,Xanomeline High Dose,81,Xanomeline Low Dose,54,2013-01-27,2013-01-27,2013-02-06,2013-02-06,2013-01-27,2013-01-27,2013-02-05,2013-02-05,NA,NA,2013-01-27T00:00:00Z,H,2013-02-05T23:59:59Z,H,2013-01-27,2013-02-05,10,DISCONTINUED,2013-02-06,ADVERSE EVENT,NA,NA,NA,Y,Y,2013-02-06,2013-01-23,-4
CDISCPILOT01,01-713-1043,1043,713,USA,78,YEARS,>=65,2,>50,3,F,WHITE,NOT HISPANIC OR LATINO,Xanomeline Low Dose,Xanomeline Low Dose,Xan_Lo,Xan_Lo,Xanomeline Low Dose,54,Xanomeline Low Dose,54,2013-09-15,2013-09-15,2014-03-24,2014-03-24,2013-09-15,2013-09-15,2014-03-24,2014-03-24,NA,NA,2013-09-15T00:00:00Z,H,2014-03-24T23:59:59Z,H,2013-09-15,2014-03-24,191,COMPLETED,2014-03-24,NA,NA,NA,NA,Y,Y,2014-03-24,2013-08-17,-29
CDISCPILOT01,01-713-1073,1073,713,USA,74,YEARS,>=65,2,>50,3,F,BLACK OR AFRICAN AMERICAN,NOT HISPANIC OR LATINO,Xanomeline Low Dose,Xanomeline Low Dose,Xan_Lo,Xan_Lo,Xanomeline Low Dose,54,Xanomeline Low Dose,54,2014-03-30,2014-03-30,2014-10-05,2014-10-05,2014-03-30,2014-03-30,2014-10-05,2014-10-05,NA,NA,2014-03-30T00:00:00Z,H,2014-10-05T23:59:59Z,H,2014-03-30,2014-10-05,190,COMPLETED,2014-10-05,NA,NA,NA,NA,Y,Y,2014-10-05,2014-03-15,-15
CDISCPILOT01,01-713-1106,1106,713,USA,74,YEARS,>=65,2,>50,3,M,WHITE,NOT HISPANIC OR LATINO,Xanomeline High Dose,Xanomeline High Dose,Xan_Hi,Xan_Hi,Xanomeline High Dose,81,Xanomeline High Dose,81,2012-10-31,2012-10-31,2013-05-06,2013-05-06,2012-10-31,2012-10-31,2013-05-06,2013-05-06,NA,NA,2012-10-31T00:00:00Z,H,2013-05-06T23:59:59Z,H,2012-10-31,2013-05-06,188,COMPLETED,2013-05-06,NA,NA,NA,NA,Y,Y,2013-05-06,2012-10-03,-28
CDISCPILOT01,01-713-1141,1141,713,USA,79,YEARS,>=65,2,>50,3,M,WHITE,NOT HISPANIC OR LATINO,Xanomeline High Dose,Xanomeline High Dose,Xan_Hi,Xan_Hi,Xanomeline High Dose,81,Xanomeline High Dose,81,2013-05-31,2013-05-31,2013-08-06,2013-08-06,2013-05-31,2013-05-31,2013-07-01,2013-07-01,NA,NA,2013-05-31T00:00:00Z,H,2013-07-01T23:59:59Z,H,2013-05-31,2013-07-01,32,DISCONTINUED,2013-08-06,ADVERSE EVENT,NA,NA,NA,Y,Y,2013-08-06,2013-05-23,-8
CDISCPILOT01,01-713-1179,1179,713,USA,64,YEARS,<65,1,>50,3,F,WHITE,NOT HISPANIC OR LATINO,Placebo,Placebo,Pbo,Pbo,Placebo,0,Placebo,0,2013-08-09,2013-08-09,2014-02-05,2014-02-05,2013-08-09,2013-08-09,2014-02-05,2014-02-05,NA,NA,2013-08-09T00:00:00Z,H,2014-02-05T23:59:59Z,H,2013-08-09,2014-02-05,181,COMPLETED,2014-02-05,NA,NA,NA,NA,Y,Y,2014-02-05,2013-07-11,-29
CDISCPILOT01,01-713-1209,1209,713,USA,77,YEARS,>=65,2,>50,3,F,WHITE,NOT HISPANIC OR LATINO,Xanomeline High Dose,Xanomeline High Dose,Xan_Hi,Xan_Hi,Xanomeline High Dose,81,Xanomeline High Dose,81,2013-05-27,2013-05-27,2013-11-22,2013-11-22,2013-05-27,2013-05-27,2013-11-22,2013-11-22,NA,NA,2013-05-27T00:00:00Z,H,2013-11-22T23:59:59Z,H,2013-05-27,2013-11-22,180,COMPLETED,2013-11-22,NA,NA,NA,NA,Y,Y,2013-11-22,2013-05-16,-11
CDISCPILOT01,01-713-1256,1256,713,USA,71,YEARS,>=65,2,>50,3,M,WHITE,NOT HISPANIC OR LATINO,Placebo,Placebo,Pbo,Pbo,Placebo,0,Placebo,0,2012-09-19,2012-09-19,2013-03-25,2013-03-25,2012-09-19,2012-09-19,2013-03-25,2013-03-25,NA,NA,2012-09-19T00:00:00Z,H,2013-03-25T23:59:59Z,H,2012-09-19,2013-03-25,188,COMPLETED,2013-03-25,NA,NA,NA,NA,Y,Y,2013-03-25,2012-09-10,-9
CDISCPILOT01,01-713-1269,1269,713,USA,73,YEARS,>=65,2,>50,3,M,WHITE,NOT HISPANIC OR LATINO,Placebo,Placebo,Pbo,Pbo,Placebo,0,Placebo,0,2014-01-27,2014-01-27,2014-07-28,2014-07-28,2014-01-27,2014-01-27,2014-07-28,2014-07-28,NA,NA,2014-01-27T00:00:00Z,H,2014-07-28T23:59:59Z,H,2014-01-27,2014-07-28,183,COMPLETED,2014-07-28,NA,NA,NA,NA,Y,Y,2014-07-28,2014-01-14,-13
CDISCPILOT01,01-713-1448,1448,713,USA,71,YEARS,>=65,2,>50,3,F,WHITE,NOT HISPANIC OR LATINO,Xanomeline Low Dose,Xanomeline Low Dose,Xan_Lo,Xan_Lo,Xanomeline Low Dose,54,Xanomeline Low Dose,54,2014-01-19,2014-01-19,2014-05-17,2014-05-17,2014-01-19,2014-01-19,2014-05-16,2014-05-16,NA,NA,2014-01-19T00:00:00Z,H,2014-05-16T23:59:59Z,H,2014-01-19,2014-05-16,118,DISCONTINUED,2014-05-17,ADVERSE EVENT,NA,NA,NA,Y,Y,2014-07-27,2014-01-05,-14
CDISCPILOT01,01-714-1035,1035,714,USA,88,YEARS,>=65,2,>50,3,F,WHITE,NOT HISPANIC OR LATINO,Placebo,Placebo,Pbo,Pbo,Placebo,0,Placebo,0,2014-04-17,2014-04-17,2014-10-16,2014-10-16,2014-04-17,2014-04-17,2014-10-16,2014-10-16,NA,NA,2014-04-17T00:00:00Z,H,2014-10-16T23:59:59Z,H,2014-04-17,2014-10-16,183,COMPLETED,2014-10-16,NA,NA,NA,NA,Y,Y,2014-10-16,2014-04-03,-14
CDISCPILOT01,01-714-1068,1068,714,USA,79,YEARS,>=65,2,>50,3,F,WHITE,NOT HISPANIC OR LATINO,Xanomeline Low Dose,Xanomeline Low Dose,Xan_Lo,Xan_Lo,Xanomeline Low Dose,54,Xanomeline Low Dose,54,2013-08-08,2013-08-08,2013-10-16,2013-10-16,2013-08-08,2013-08-08,2013-10-08,2013-10-08,NA,NA,2013-08-08T00:00:00Z,H,2013-10-08T23:59:59Z,H,2013-08-08,2013-10-08,62,DISCONTINUED,2013-10-16,ADVERSE EVENT,NA,NA,NA,Y,Y,2013-10-16,2013-07-31,-8
CDISCPILOT01,01-714-1195,1195,714,USA,75,YEARS,>=65,2,>50,3,M,WHITE,NOT HISPANIC OR LATINO,Xanomeline Low Dose,Xanomeline Low Dose,Xan_Lo,Xan_Lo,Xanomeline Low Dose,54,Xanomeline Low Dose,54,2013-04-26,2013-04-26,2013-10-23,2013-10-23,2013-04-26,2013-04-26,2013-10-23,2013-10-23,NA,NA,2013-04-26T00:00:00Z,H,2013-10-23T23:59:59Z,H,2013-04-26,2013-10-23,181,COMPLETED,2013-10-23,NA,NA,NA,NA,Y,Y,2013-10-23,2013-04-16,-10
CDISCPILOT01,01-714-1288,1288,714,USA,77,YEARS,>=65,2,>50,3,M,BLACK OR AFRICAN AMERICAN,NOT HISPANIC OR LATINO,Xanomeline High Dose,Xanomeline High Dose,Xan_Hi,Xan_Hi,Xanomeline High Dose,81,Xanomeline High Dose,81,2013-12-04,2013-12-04,2014-06-17,2014-06-17,2013-12-04,2013-12-04,2014-06-17,2014-06-17,NA,NA,2013-12-04T00:00:00Z,H,2014-06-17T23:59:59Z,H,2013-12-04,2014-06-17,196,COMPLETED,2014-06-17,NA,NA,NA,NA,Y,Y,2014-06-17,2013-11-24,-10
CDISCPILOT01,01-714-1375,1375,714,USA,78,YEARS,>=65,2,>50,3,F,WHITE,NOT HISPANIC OR LATINO,Placebo,Placebo,Pbo,Pbo,Placebo,0,Placebo,0,2013-02-26,2013-02-26,2013-09-07,2013-09-07,2013-02-26,2013-02-26,2013-09-07,2013-09-07,NA,NA,2013-02-26T00:00:00Z,H,2013-09-07T23:59:59Z,H,2013-02-26,2013-09-07,194,COMPLETED,2013-09-07,NA,NA,NA,NA,Y,Y,2013-09-07,2013-02-23,-3
CDISCPILOT01,01-714-1425,1425,714,USA,81,YEARS,>=65,2,>50,3,M,WHITE,NOT HISPANIC OR LATINO,Xanomeline High Dose,Xanomeline Low Dose,Xan_Hi,Xan_Lo,Xanomeline High Dose,81,Xanomeline Low Dose,54,2013-08-15,2013-08-15,2013-08-22,2013-08-22,2013-08-15,2013-08-15,2013-08-19,2013-08-19,NA,NA,2013-08-15T00:00:00Z,H,2013-08-19T23:59:59Z,H,2013-08-15,2013-08-19,5,DISCONTINUED,2013-08-22,STUDY TERMINATED BY SPONSOR,NA,NA,NA,Y,Y,2013-08-22,2013-08-11,-4
CDISCPILOT01,01-715-1085,1085,715,USA,77,YEARS,>=65,2,>50,3,F,WHITE,NOT HISPANIC OR LATINO,Xanomeline Low Dose,Xanomeline Low Dose,Xan_Lo,Xan_Lo,Xanomeline Low Dose,54,Xanomeline Low Dose,54,2013-02-16,2013-02-16,2013-08-18,2013-08-18,2013-02-16,2013-02-16,2013-08-18,2013-08-18,NA,NA,2013-02-16T00:00:00Z,H,2013-08-18T23:59:59Z,H,2013-02-16,2013-08-18,184,COMPLETED,2013-08-18,NA,NA,NA,NA,Y,Y,2013-08-18,2013-02-03,-13
CDISCPILOT01,01-715-1107,1107,715,USA,65,YEARS,>=65,2,>50,3,M,WHITE,NOT HISPANIC OR LATINO,Xanomeline Low Dose,Xanomeline Low Dose,Xan_Lo,Xan_Lo,Xanomeline Low Dose,54,Xanomeline Low Dose,54,2013-02-26,2013-02-26,2013-05-13,2013-05-13,2013-02-26,2013-02-26,2013-05-07,2013-05-07,NA,NA,2013-02-26T00:00:00Z,H,2013-05-07T23:59:59Z,H,2013-02-26,2013-05-07,71,DISCONTINUED,2013-05-13,ADVERSE EVENT,NA,NA,NA,Y,Y,2013-08-14,2013-02-12,-14
CDISCPILOT01,01-715-1134,1134,715,USA,50,YEARS,<65,1,18 - 50,2,F,WHITE,NOT HISPANIC OR LATINO,Screen Failure,Screen Failure,Scrnfail,Scrnfail,Screen Failure,NA,Screen Failure,NA,NA,NA,NA,NA,NA,NA,NA,NA,NA,NA,NA,NA,NA,NA,NA,NA,NA,ONGOING,NA,NA,NA,NA,NA,N,N,2014-04-17,2014-04-17,NA
CDISCPILOT01,01-715-1155,1155,715,USA,59,YEARS,<65,1,>50,3,F,WHITE,NOT HISPANIC OR LATINO,Placebo,Placebo,Pbo,Pbo,Placebo,0,Placebo,0,2013-12-13,2013-12-13,2014-04-26,2014-04-26,2013-12-13,2013-12-13,2014-01-25,2014-01-25,NA,NA,2013-12-13T00:00:00Z,H,2014-01-25T23:59:59Z,H,2013-12-13,2014-01-25,44,DISCONTINUED,2014-04-26,WITHDRAWAL BY SUBJECT,NA,NA,NA,Y,Y,2014-04-26,2013-11-29,-14
CDISCPILOT01,01-715-1207,1207,715,USA,78,YEARS,>=65,2,>50,3,F,WHITE,NOT HISPANIC OR LATINO,Placebo,Placebo,Pbo,Pbo,Placebo,0,Placebo,0,2012-11-18,2012-11-18,2013-06-01,2013-06-01,2012-11-18,2012-11-18,2013-05-27,2013-05-27,NA,NA,2012-11-18T00:00:00Z,H,2013-05-27T23:59:59Z,H,2012-11-18,2013-05-27,191,COMPLETED,2013-06-01,NA,NA,NA,NA,Y,Y,2013-06-01,2012-11-12,-6
CDISCPILOT01,01-715-1225,1225,715,USA,77,YEARS,>=65,2,>50,3,F,WHITE,NOT HISPANIC OR LATINO,Screen Failure,Screen Failure,Scrnfail,Scrnfail,Screen Failure,NA,Screen Failure,NA,NA,NA,NA,NA,NA,NA,NA,NA,NA,NA,NA,NA,NA,NA,NA,NA,NA,ONGOING,NA,NA,NA,NA,NA,N,N,2013-01-22,2013-01-22,NA
CDISCPILOT01,01-715-1319,1319,715,USA,65,YEARS,>=65,2,>50,3,M,WHITE,NOT HISPANIC OR LATINO,Xanomeline High Dose,Xanomeline High Dose,Xan_Hi,Xan_Hi,Xanomeline High Dose,81,Xanomeline High Dose,81,2013-02-17,2013-02-17,2013-03-18,2013-03-18,2013-02-17,2013-02-17,2013-03-05,2013-03-05,NA,NA,2013-02-17T00:00:00Z,H,2013-03-05T23:59:59Z,H,2013-02-17,2013-03-05,17,DISCONTINUED,2013-03-18,WITHDRAWAL BY SUBJECT,NA,NA,NA,Y,Y,2013-03-18,2013-02-03,-14
CDISCPILOT01,01-715-1321,1321,715,USA,75,YEARS,>=65,2,>50,3,F,WHITE,NOT HISPANIC OR LATINO,Xanomeline High Dose,Xanomeline High Dose,Xan_Hi,Xan_Hi,Xanomeline High Dose,81,Xanomeline High Dose,81,2014-02-11,2014-02-11,2014-04-22,2014-04-22,2014-02-11,2014-02-11,2014-04-21,2014-04-21,NA,NA,2014-02-11T00:00:00Z,H,2014-04-21T23:59:59Z,H,2014-02-11,2014-04-21,70,DISCONTINUED,2014-04-22,ADVERSE EVENT,NA,NA,NA,Y,Y,2014-04-22,2014-02-06,-5
CDISCPILOT01,01-715-1333,1333,715,USA,75,YEARS,>=65,2,>50,3,F,WHITE,NOT HISPANIC OR LATINO,Screen Failure,Screen Failure,Scrnfail,Scrnfail,Screen Failure,NA,Screen Failure,NA,NA,NA,NA,NA,NA,NA,NA,NA,NA,NA,NA,NA,NA,NA,NA,NA,NA,ONGOING,NA,NA,NA,NA,NA,N,N,2013-06-03,2013-06-03,NA
CDISCPILOT01,01-715-1397,1397,715,USA,76,YEARS,>=65,2,>50,3,F,WHITE,NOT HISPANIC OR LATINO,Placebo,Placebo,Pbo,Pbo,Placebo,0,Placebo,0,2013-04-03,2013-04-03,2013-10-03,2013-10-03,2013-04-03,2013-04-03,2013-10-02,2013-10-02,NA,NA,2013-04-03T00:00:00Z,H,2013-10-02T23:59:59Z,H,2013-04-03,2013-10-02,183,COMPLETED,2013-10-03,NA,NA,NA,NA,Y,Y,2013-10-03,2013-03-20,-14
CDISCPILOT01,01-715-1405,1405,715,USA,69,YEARS,>=65,2,>50,3,M,WHITE,NOT HISPANIC OR LATINO,Xanomeline Low Dose,Xanomeline Low Dose,Xan_Lo,Xan_Lo,Xanomeline Low Dose,54,Xanomeline Low Dose,54,2013-07-06,2013-07-06,2013-07-13,2013-07-13,2013-07-06,2013-07-06,2013-07-07,2013-07-07,NA,NA,2013-07-06T00:00:00Z,H,2013-07-07T23:59:59Z,H,2013-07-06,2013-07-07,2,DISCONTINUED,2013-07-13,ADVERSE EVENT,NA,NA,NA,Y,Y,2014-01-11,2013-06-27,-9
CDISCPILOT01,01-715-1407,1407,715,USA,73,YEARS,>=65,2,>50,3,F,WHITE,NOT HISPANIC OR LATINO,Screen Failure,Screen Failure,Scrnfail,Scrnfail,Screen Failure,NA,Screen Failure,NA,NA,NA,NA,NA,NA,NA,NA,NA,NA,NA,NA,NA,NA,NA,NA,NA,NA,ONGOING,NA,NA,NA,NA,NA,N,N,2012-10-24,2012-10-24,NA
CDISCPILOT01,01-716-1003,1003,716,USA,79,YEARS,>=65,2,>50,3,M,WHITE,HISPANIC OR LATINO,Screen Failure,Screen Failure,Scrnfail,Scrnfail,Screen Failure,NA,Screen Failure,NA,NA,NA,NA,NA,NA,NA,NA,NA,NA,NA,NA,NA,NA,NA,NA,NA,NA,ONGOING,NA,NA,NA,NA,NA,N,N,2014-03-29,2014-03-29,NA
CDISCPILOT01,01-716-1024,1024,716,USA,87,YEARS,>=65,2,>50,3,F,WHITE,NOT HISPANIC OR LATINO,Placebo,Placebo,Pbo,Pbo,Placebo,0,Placebo,0,2012-07-09,2012-07-09,2013-01-20,2013-01-20,2012-07-09,2012-07-09,2013-01-20,2013-01-20,NA,NA,2012-07-09T00:00:00Z,H,2013-01-20T23:59:59Z,H,2012-07-09,2013-01-20,196,COMPLETED,2013-01-20,NA,NA,NA,NA,Y,Y,2013-01-20,2012-07-06,-3
CDISCPILOT01,01-716-1026,1026,716,USA,73,YEARS,>=65,2,>50,3,F,WHITE,NOT HISPANIC OR LATINO,Placebo,Placebo,Pbo,Pbo,Placebo,0,Placebo,0,2014-04-02,2014-04-02,2014-10-16,2014-10-16,2014-04-02,2014-04-02,2014-10-16,2014-10-16,NA,NA,2014-04-02T00:00:00Z,H,2014-10-16T23:59:59Z,H,2014-04-02,2014-10-16,198,COMPLETED,2014-10-16,NA,NA,NA,NA,Y,Y,2014-10-16,2014-03-23,-10
CDISCPILOT01,01-716-1030,1030,716,USA,83,YEARS,>=65,2,>50,3,F,WHITE,NOT HISPANIC OR LATINO,Xanomeline High Dose,Xanomeline Low Dose,Xan_Hi,Xan_Lo,Xanomeline High Dose,81,Xanomeline Low Dose,54,2013-12-28,2013-12-28,2014-01-10,2014-01-10,2013-12-28,2013-12-28,2014-01-02,2014-01-02,NA,NA,2013-12-28T00:00:00Z,H,2014-01-02T23:59:59Z,H,2013-12-28,2014-01-02,6,DISCONTINUED,2014-01-10,WITHDRAWAL BY SUBJECT,NA,NA,NA,Y,Y,2014-01-10,2013-12-25,-3
CDISCPILOT01,01-716-1044,1044,716,USA,74,YEARS,>=65,2,>50,3,M,WHITE,NOT HISPANIC OR LATINO,Placebo,Placebo,Pbo,Pbo,Placebo,0,Placebo,0,2013-04-27,2013-04-27,2013-11-03,2013-11-03,2013-04-27,2013-04-27,2013-11-03,2013-11-03,NA,NA,2013-04-27T00:00:00Z,H,2013-11-03T23:59:59Z,H,2013-04-27,2013-11-03,191,COMPLETED,2013-11-03,NA,NA,NA,NA,Y,Y,2013-11-03,2013-04-20,-7
CDISCPILOT01,01-716-1061,1061,716,USA,81,YEARS,>=65,2,>50,3,M,WHITE,NOT HISPANIC OR LATINO,Screen Failure,Screen Failure,Scrnfail,Scrnfail,Screen Failure,NA,Screen Failure,NA,NA,NA,NA,NA,NA,NA,NA,NA,NA,NA,NA,NA,NA,NA,NA,NA,NA,ONGOING,NA,NA,NA,NA,NA,N,N,2014-02-14,2014-02-14,NA
CDISCPILOT01,01-716-1063,1063,716,USA,80,YEARS,>=65,2,>50,3,M,WHITE,NOT HISPANIC OR LATINO,Xanomeline Low Dose,Xanomeline Low Dose,Xan_Lo,Xan_Lo,Xanomeline Low Dose,54,Xanomeline Low Dose,54,2013-05-09,2013-05-09,2013-08-28,2013-08-28,2013-05-09,2013-05-09,2013-08-25,2013-08-25,NA,NA,2013-05-09T00:00:00Z,H,2013-08-25T23:59:59Z,H,2013-05-09,2013-08-25,109,DISCONTINUED,2013-08-28,ADVERSE EVENT,NA,NA,NA,Y,Y,2013-11-17,2013-05-06,-3
CDISCPILOT01,01-716-1071,1071,716,USA,78,YEARS,>=65,2,>50,3,F,WHITE,NOT HISPANIC OR LATINO,Xanomeline High Dose,Xanomeline High Dose,Xan_Hi,Xan_Hi,Xanomeline High Dose,81,Xanomeline High Dose,81,2013-06-08,2013-06-08,2013-08-01,2013-08-01,2013-06-08,2013-06-08,2013-08-01,2013-08-01,NA,NA,2013-06-08T00:00:00Z,H,2013-08-01T23:59:59Z,H,2013-06-08,2013-08-01,55,DISCONTINUED,2013-08-01,ADVERSE EVENT,NA,NA,NA,Y,Y,2013-12-16,2013-06-03,-5
CDISCPILOT01,01-716-1094,1094,716,USA,82,YEARS,>=65,2,>50,3,M,WHITE,NOT HISPANIC OR LATINO,Xanomeline Low Dose,Xanomeline Low Dose,Xan_Lo,Xan_Lo,Xanomeline Low Dose,54,Xanomeline Low Dose,54,2012-12-19,2012-12-19,2013-01-26,2013-01-26,2012-12-19,2012-12-19,2013-01-24,2013-01-24,NA,NA,2012-12-19T00:00:00Z,H,2013-01-24T23:59:59Z,H,2012-12-19,2013-01-24,37,DISCONTINUED,2013-01-26,ADVERSE EVENT,NA,NA,NA,Y,Y,2013-06-22,2012-12-16,-3
CDISCPILOT01,01-716-1103,1103,716,USA,79,YEARS,>=65,2,>50,3,M,WHITE,NOT HISPANIC OR LATINO,Xanomeline Low Dose,Xanomeline Low Dose,Xan_Lo,Xan_Lo,Xanomeline Low Dose,54,Xanomeline Low Dose,54,2014-03-20,2014-03-20,2014-09-20,2014-09-20,2014-03-20,2014-03-20,2014-09-20,2014-09-20,NA,NA,2014-03-20T00:00:00Z,H,2014-09-20T23:59:59Z,H,2014-03-20,2014-09-20,185,COMPLETED,2014-09-20,NA,NA,NA,NA,Y,Y,2014-09-20,2014-03-18,-2
CDISCPILOT01,01-716-1108,1108,716,USA,86,YEARS,>=65,2,>50,3,F,WHITE,NOT HISPANIC OR LATINO,Placebo,Placebo,Pbo,Pbo,Placebo,0,Placebo,0,2013-02-12,2013-02-12,2013-08-10,2013-08-10,2013-02-12,2013-02-12,2013-08-10,2013-08-10,NA,NA,2013-02-12T00:00:00Z,H,2013-08-10T23:59:59Z,H,2013-02-12,2013-08-10,180,COMPLETED,2013-08-10,NA,NA,NA,NA,Y,Y,2013-08-10,2013-02-04,-8
CDISCPILOT01,01-716-1151,1151,716,USA,83,YEARS,>=65,2,>50,3,F,WHITE,NOT HISPANIC OR LATINO,Xanomeline Low Dose,Xanomeline Low Dose,Xan_Lo,Xan_Lo,Xanomeline Low Dose,54,Xanomeline Low Dose,54,2013-02-01,2013-02-01,2013-06-07,2013-06-07,2013-02-01,2013-02-01,2013-05-11,2013-05-11,NA,NA,2013-02-01T00:00:00Z,H,2013-05-11T23:59:59Z,H,2013-02-01,2013-05-11,100,DISCONTINUED,2013-06-07,ADVERSE EVENT,NA,NA,NA,Y,Y,2013-08-13,2013-01-23,-9
CDISCPILOT01,01-716-1157,1157,716,USA,85,YEARS,>=65,2,>50,3,M,WHITE,NOT HISPANIC OR LATINO,Xanomeline Low Dose,Xanomeline Low Dose,Xan_Lo,Xan_Lo,Xanomeline Low Dose,54,Xanomeline Low Dose,54,2013-10-02,2013-10-02,2014-04-05,2014-04-05,2013-10-02,2013-10-02,2014-04-04,2014-04-04,NA,NA,2013-10-02T00:00:00Z,H,2014-04-04T23:59:59Z,H,2013-10-02,2014-04-04,185,COMPLETED,2014-04-05,NA,NA,NA,NA,Y,Y,2014-04-05,2013-09-23,-9
CDISCPILOT01,01-716-1160,1160,716,USA,83,YEARS,>=65,2,>50,3,F,WHITE,NOT HISPANIC OR LATINO,Placebo,Placebo,Pbo,Pbo,Placebo,0,Placebo,0,2013-04-05,2013-04-05,2013-10-11,2013-10-11,2013-04-05,2013-04-05,2013-10-11,2013-10-11,NA,NA,2013-04-05T00:00:00Z,H,2013-10-11T23:59:59Z,H,2013-04-05,2013-10-11,190,COMPLETED,2013-10-11,NA,NA,NA,NA,Y,Y,2013-10-11,2013-03-23,-13
CDISCPILOT01,01-716-1167,1167,716,USA,68,YEARS,>=65,2,>50,3,M,WHITE,NOT HISPANIC OR LATINO,Xanomeline Low Dose,Xanomeline Low Dose,Xan_Lo,Xan_Lo,Xanomeline Low Dose,54,Xanomeline Low Dose,54,2012-10-08,2012-10-08,2013-04-13,2013-04-13,2012-10-08,2012-10-08,2013-04-12,2013-04-12,NA,NA,2012-10-08T00:00:00Z,H,2013-04-12T23:59:59Z,H,2012-10-08,2013-04-12,187,COMPLETED,2013-04-13,NA,NA,NA,NA,Y,Y,2013-04-13,2012-09-30,-8
CDISCPILOT01,01-716-1177,1177,716,USA,72,YEARS,>=65,2,>50,3,M,WHITE,NOT HISPANIC OR LATINO,Placebo,Placebo,Pbo,Pbo,Placebo,0,Placebo,0,2014-09-02,2014-09-02,2015-03-05,2015-03-05,2014-09-02,2014-09-02,2015-03-05,2015-03-05,NA,NA,2014-09-02T00:00:00Z,H,2015-03-05T23:59:59Z,H,2014-09-02,2015-03-05,185,COMPLETED,2015-03-05,NA,NA,NA,NA,Y,Y,2015-03-05,2014-08-29,-4
CDISCPILOT01,01-716-1189,1189,716,USA,81,YEARS,>=65,2,>50,3,M,WHITE,NOT HISPANIC OR LATINO,Xanomeline High Dose,Xanomeline High Dose,Xan_Hi,Xan_Hi,Xanomeline High Dose,81,Xanomeline High Dose,81,2012-10-09,2012-10-09,2013-03-03,2013-03-03,2012-10-09,2012-10-09,2013-02-27,2013-02-27,NA,NA,2012-10-09T00:00:00Z,H,2013-02-27T23:59:59Z,H,2012-10-09,2013-02-27,142,DISCONTINUED,2013-03-03,ADVERSE EVENT,NA,NA,NA,Y,Y,2013-04-08,2012-10-07,-2
CDISCPILOT01,01-716-1229,1229,716,USA,73,YEARS,>=65,2,>50,3,F,WHITE,NOT HISPANIC OR LATINO,Xanomeline High Dose,Xanomeline High Dose,Xan_Hi,Xan_Hi,Xanomeline High Dose,81,Xanomeline High Dose,81,2013-02-20,2013-02-20,2013-04-02,2013-04-02,2013-02-20,2013-02-20,2013-03-31,2013-03-31,NA,NA,2013-02-20T00:00:00Z,H,2013-03-31T23:59:59Z,H,2013-02-20,2013-03-31,40,DISCONTINUED,2013-04-02,ADVERSE EVENT,NA,NA,NA,Y,Y,2013-04-02,2013-02-14,-6
CDISCPILOT01,01-716-1244,1244,716,USA,72,YEARS,>=65,2,>50,3,F,WHITE,NOT HISPANIC OR LATINO,Screen Failure,Screen Failure,Scrnfail,Scrnfail,Screen Failure,NA,Screen Failure,NA,NA,NA,NA,NA,NA,NA,NA,NA,NA,NA,NA,NA,NA,NA,NA,NA,NA,ONGOING,NA,NA,NA,NA,NA,N,N,2013-08-15,2013-08-15,NA
CDISCPILOT01,01-716-1298,1298,716,USA,76,YEARS,>=65,2,>50,3,F,WHITE,NOT HISPANIC OR LATINO,Xanomeline Low Dose,Xanomeline Low Dose,Xan_Lo,Xan_Lo,Xanomeline Low Dose,54,Xanomeline Low Dose,54,2013-04-08,2013-04-08,2013-07-06,2013-07-06,2013-04-08,2013-04-08,2013-06-28,2013-06-28,NA,NA,2013-04-08T00:00:00Z,H,2013-06-28T23:59:59Z,H,2013-04-08,2013-06-28,82,DISCONTINUED,2013-07-06,ADVERSE EVENT,NA,NA,NA,Y,Y,2013-10-07,2013-04-04,-4
CDISCPILOT01,01-716-1305,1305,716,USA,73,YEARS,>=65,2,>50,3,F,WHITE,NOT HISPANIC OR LATINO,Screen Failure,Screen Failure,Scrnfail,Scrnfail,Screen Failure,NA,Screen Failure,NA,NA,NA,NA,NA,NA,NA,NA,NA,NA,NA,NA,NA,NA,NA,NA,NA,NA,ONGOING,NA,NA,NA,NA,NA,N,N,2013-08-06,2013-08-06,NA
CDISCPILOT01,01-716-1308,1308,716,USA,76,YEARS,>=65,2,>50,3,F,WHITE,NOT HISPANIC OR LATINO,Placebo,Placebo,Pbo,Pbo,Placebo,0,Placebo,0,2013-08-28,2013-08-28,2013-10-07,2013-10-07,2013-08-28,2013-08-28,2013-10-07,2013-10-07,NA,NA,2013-08-28T00:00:00Z,H,2013-10-07T23:59:59Z,H,2013-08-28,2013-10-07,41,DISCONTINUED,2013-10-07,WITHDRAWAL BY SUBJECT,NA,NA,NA,Y,Y,2013-10-07,2013-08-23,-5
CDISCPILOT01,01-716-1311,1311,716,USA,78,YEARS,>=65,2,>50,3,M,WHITE,NOT HISPANIC OR LATINO,Xanomeline Low Dose,Xanomeline Low Dose,Xan_Lo,Xan_Lo,Xanomeline Low Dose,54,Xanomeline Low Dose,54,2014-05-14,2014-05-14,2014-09-30,2014-09-30,2014-05-14,2014-05-14,2014-09-21,2014-09-21,NA,NA,2014-05-14T00:00:00Z,H,2014-09-21T23:59:59Z,H,2014-05-14,2014-09-21,131,DISCONTINUED,2014-09-30,WITHDRAWAL BY SUBJECT,NA,NA,NA,Y,Y,2014-11-15,2014-05-08,-6
CDISCPILOT01,01-716-1331,1331,716,USA,59,YEARS,<65,1,>50,3,F,WHITE,NOT HISPANIC OR LATINO,Screen Failure,Screen Failure,Scrnfail,Scrnfail,Screen Failure,NA,Screen Failure,NA,NA,NA,NA,NA,NA,NA,NA,NA,NA,NA,NA,NA,NA,NA,NA,NA,NA,ONGOING,NA,NA,NA,NA,NA,N,N,2013-11-25,2013-11-25,NA
CDISCPILOT01,01-716-1364,1364,716,USA,84,YEARS,>=65,2,>50,3,F,WHITE,NOT HISPANIC OR LATINO,Xanomeline High Dose,Xanomeline High Dose,Xan_Hi,Xan_Hi,Xanomeline High Dose,81,Xanomeline High Dose,81,2013-07-04,2013-07-04,2014-01-09,2014-01-09,2013-07-04,2013-07-04,2014-01-09,2014-01-09,NA,NA,2013-07-04T00:00:00Z,H,2014-01-09T23:59:59Z,H,2013-07-04,2014-01-09,190,COMPLETED,2014-01-09,NA,NA,NA,NA,Y,Y,2014-01-09,2013-06-27,-7
CDISCPILOT01,01-716-1373,1373,716,USA,74,YEARS,>=65,2,>50,3,M,WHITE,NOT HISPANIC OR LATINO,Xanomeline High Dose,Xanomeline High Dose,Xan_Hi,Xan_Hi,Xanomeline High Dose,81,Xanomeline High Dose,81,2012-12-14,2012-12-14,2013-02-28,2013-02-28,2012-12-14,2012-12-14,2013-02-27,2013-02-27,NA,NA,2012-12-14T00:00:00Z,H,2013-02-27T23:59:59Z,H,2012-12-14,2013-02-27,76,DISCONTINUED,2013-02-28,ADVERSE EVENT,NA,NA,NA,Y,Y,2013-02-28,2012-11-24,-20
CDISCPILOT01,01-716-1418,1418,716,USA,80,YEARS,>=65,2,>50,3,F,WHITE,NOT HISPANIC OR LATINO,Xanomeline High Dose,Xanomeline High Dose,Xan_Hi,Xan_Hi,Xanomeline High Dose,81,Xanomeline High Dose,81,2013-05-05,2013-05-05,2013-11-20,2013-11-20,2013-05-05,2013-05-05,2013-11-20,2013-11-20,NA,NA,2013-05-05T00:00:00Z,H,2013-11-20T23:59:59Z,H,2013-05-05,2013-11-20,200,COMPLETED,2013-11-20,NA,NA,NA,NA,Y,Y,2013-11-20,2013-04-27,-8
CDISCPILOT01,01-716-1441,1441,716,USA,85,YEARS,>=65,2,>50,3,M,WHITE,NOT HISPANIC OR LATINO,Placebo,Placebo,Pbo,Pbo,Placebo,0,Placebo,0,2014-01-22,2014-01-22,2014-07-22,2014-07-22,2014-01-22,2014-01-22,2014-07-22,2014-07-22,NA,NA,2014-01-22T00:00:00Z,H,2014-07-22T23:59:59Z,H,2014-01-22,2014-07-22,182,COMPLETED,2014-07-22,NA,NA,NA,NA,Y,Y,2014-07-22,2014-01-13,-9
CDISCPILOT01,01-716-1447,1447,716,USA,72,YEARS,>=65,2,>50,3,F,WHITE,NOT HISPANIC OR LATINO,Xanomeline High Dose,Xanomeline High Dose,Xan_Hi,Xan_Hi,Xanomeline High Dose,81,Xanomeline High Dose,81,2013-12-16,2013-12-16,2014-06-17,2014-06-17,2013-12-16,2013-12-16,2014-06-17,2014-06-17,NA,NA,2013-12-16T00:00:00Z,H,2014-06-17T23:59:59Z,H,2013-12-16,2014-06-17,184,COMPLETED,2014-06-17,NA,NA,NA,NA,Y,Y,2014-06-17,2013-12-10,-6
CDISCPILOT01,01-717-1004,1004,717,USA,80,YEARS,>=65,2,>50,3,F,WHITE,NOT HISPANIC OR LATINO,Xanomeline Low Dose,Xanomeline Low Dose,Xan_Lo,Xan_Lo,Xanomeline Low Dose,54,Xanomeline Low Dose,54,2014-01-14,2014-01-14,2014-07-16,2014-07-16,2014-01-14,2014-01-14,2014-07-16,2014-07-16,NA,NA,2014-01-14T00:00:00Z,H,2014-07-16T23:59:59Z,H,2014-01-14,2014-07-16,184,COMPLETED,2014-07-16,NA,NA,NA,NA,Y,Y,2014-07-16,2014-01-01,-13
CDISCPILOT01,01-717-1109,1109,717,USA,84,YEARS,>=65,2,>50,3,M,WHITE,NOT HISPANIC OR LATINO,Xanomeline High Dose,Xanomeline High Dose,Xan_Hi,Xan_Hi,Xanomeline High Dose,81,Xanomeline High Dose,81,2014-01-27,2014-01-27,2014-07-28,2014-07-28,2014-01-27,2014-01-27,2014-07-28,2014-07-28,NA,NA,2014-01-27T00:00:00Z,H,2014-07-28T23:59:59Z,H,2014-01-27,2014-07-28,183,COMPLETED,2014-07-28,NA,NA,NA,NA,Y,Y,2014-07-28,2014-01-20,-7
CDISCPILOT01,01-717-1174,1174,717,USA,73,YEARS,>=65,2,>50,3,M,WHITE,NOT HISPANIC OR LATINO,Xanomeline High Dose,Xanomeline High Dose,Xan_Hi,Xan_Hi,Xanomeline High Dose,81,Xanomeline High Dose,81,2013-01-22,2013-01-22,2013-07-24,2013-07-24,2013-01-22,2013-01-22,2013-07-24,2013-07-24,NA,NA,2013-01-22T00:00:00Z,H,2013-07-24T23:59:59Z,H,2013-01-22,2013-07-24,184,COMPLETED,2013-07-24,NA,NA,NA,NA,Y,Y,2013-07-24,2013-01-16,-6
CDISCPILOT01,01-717-1201,1201,717,USA,85,YEARS,>=65,2,>50,3,F,WHITE,NOT HISPANIC OR LATINO,Placebo,Placebo,Pbo,Pbo,Placebo,0,Placebo,0,2013-12-19,2013-12-19,2014-02-21,2014-02-21,2013-12-19,2013-12-19,2014-02-21,2014-02-21,NA,NA,2013-12-19T00:00:00Z,H,2014-02-21T23:59:59Z,H,2013-12-19,2014-02-21,65,DISCONTINUED,2014-02-21,LACK OF EFFICACY,NA,NA,NA,Y,Y,2014-02-21,2013-12-12,-7
CDISCPILOT01,01-717-1344,1344,717,USA,64,YEARS,<65,1,>50,3,F,WHITE,NOT HISPANIC OR LATINO,Placebo,Placebo,Pbo,Pbo,Placebo,0,Placebo,0,2014-01-11,2014-01-11,2014-03-14,2014-03-14,2014-01-11,2014-01-11,2014-03-14,2014-03-14,NA,NA,2014-01-11T00:00:00Z,H,2014-03-14T23:59:59Z,H,2014-01-11,2014-03-14,63,DISCONTINUED,2014-03-14,LACK OF EFFICACY,NA,NA,NA,Y,Y,2014-03-14,2014-01-01,-10
CDISCPILOT01,01-717-1357,1357,717,USA,77,YEARS,>=65,2,>50,3,M,WHITE,NOT HISPANIC OR LATINO,Xanomeline High Dose,Xanomeline High Dose,Xan_Hi,Xan_Hi,Xanomeline High Dose,81,Xanomeline High Dose,81,2013-05-01,2013-05-01,2013-10-20,2013-10-20,2013-05-01,2013-05-01,2013-10-14,2013-10-14,NA,NA,2013-05-01T00:00:00Z,H,2013-10-14T23:59:59Z,H,2013-05-01,2013-10-14,167,DISCONTINUED,2013-10-20,STUDY TERMINATED BY SPONSOR,NA,NA,NA,Y,Y,2013-10-20,2013-04-21,-10
CDISCPILOT01,01-717-1446,1446,717,USA,75,YEARS,>=65,2,>50,3,F,WHITE,NOT HISPANIC OR LATINO,Xanomeline Low Dose,Xanomeline Low Dose,Xan_Lo,Xan_Lo,Xanomeline Low Dose,54,Xanomeline Low Dose,54,2013-09-01,2013-09-01,2014-03-04,2014-03-04,2013-09-01,2013-09-01,2014-03-03,2014-03-03,NA,NA,2013-09-01T00:00:00Z,H,2014-03-03T23:59:59Z,H,2013-09-01,2014-03-03,184,COMPLETED,2014-03-04,NA,NA,NA,NA,Y,Y,2014-03-17,2013-08-20,-12
CDISCPILOT01,01-718-1066,1066,718,USA,79,YEARS,>=65,2,>50,3,F,WHITE,NOT HISPANIC OR LATINO,Xanomeline Low Dose,Xanomeline Low Dose,Xan_Lo,Xan_Lo,Xanomeline Low Dose,54,Xanomeline Low Dose,54,2013-07-07,2013-07-07,2013-07-30,2013-07-30,2013-07-07,2013-07-07,2013-07-16,2013-07-16,NA,NA,2013-07-07T00:00:00Z,H,2013-07-16T23:59:59Z,H,2013-07-07,2013-07-16,10,DISCONTINUED,2013-07-30,ADVERSE EVENT,NA,NA,NA,Y,Y,2013-07-30,2013-06-28,-9
CDISCPILOT01,01-718-1079,1079,718,USA,67,YEARS,>=65,2,>50,3,F,WHITE,NOT HISPANIC OR LATINO,Xanomeline Low Dose,Xanomeline Low Dose,Xan_Lo,Xan_Lo,Xanomeline Low Dose,54,Xanomeline Low Dose,54,2012-09-19,2012-09-19,2012-11-06,2012-11-06,2012-09-19,2012-09-19,2012-10-31,2012-10-31,NA,NA,2012-09-19T00:00:00Z,H,2012-10-31T23:59:59Z,H,2012-09-19,2012-10-31,43,DISCONTINUED,2012-11-06,ADVERSE EVENT,NA,NA,NA,Y,Y,2013-03-05,2012-09-11,-8
CDISCPILOT01,01-718-1101,1101,718,USA,82,YEARS,>=65,2,>50,3,M,BLACK OR AFRICAN AMERICAN,NOT HISPANIC OR LATINO,Xanomeline High Dose,Xanomeline High Dose,Xan_Hi,Xan_Hi,Xanomeline High Dose,81,Xanomeline High Dose,81,2013-02-17,2013-02-17,2013-08-02,2013-08-02,2013-02-17,2013-02-17,2013-07-31,2013-07-31,NA,NA,2013-02-17T00:00:00Z,H,2013-07-31T23:59:59Z,H,2013-02-17,2013-07-31,165,DISCONTINUED,2013-08-02,STUDY TERMINATED BY SPONSOR,NA,NA,NA,Y,Y,2013-08-02,2013-02-01,-16
CDISCPILOT01,01-718-1139,1139,718,USA,77,YEARS,>=65,2,>50,3,M,WHITE,NOT HISPANIC OR LATINO,Placebo,Placebo,Pbo,Pbo,Placebo,0,Placebo,0,2013-05-19,2013-05-19,2013-11-17,2013-11-17,2013-05-19,2013-05-19,2013-11-17,2013-11-17,NA,NA,2013-05-19T00:00:00Z,H,2013-11-17T23:59:59Z,H,2013-05-19,2013-11-17,183,COMPLETED,2013-11-17,NA,NA,NA,NA,Y,Y,2013-11-17,2013-05-03,-16
CDISCPILOT01,01-718-1150,1150,718,USA,73,YEARS,>=65,2,>50,3,F,WHITE,NOT HISPANIC OR LATINO,Placebo,Placebo,Pbo,Pbo,Placebo,0,Placebo,0,2013-01-19,2013-01-19,2013-07-31,2013-07-31,2013-01-19,2013-01-19,2013-07-29,2013-07-29,NA,NA,2013-01-19T00:00:00Z,H,2013-07-29T23:59:59Z,H,2013-01-19,2013-07-29,192,COMPLETED,2013-07-31,NA,NA,NA,NA,Y,Y,2013-07-31,2013-01-12,-7
CDISCPILOT01,01-718-1170,1170,718,USA,80,YEARS,>=65,2,>50,3,F,WHITE,NOT HISPANIC OR LATINO,Xanomeline Low Dose,Xanomeline Low Dose,Xan_Lo,Xan_Lo,Xanomeline Low Dose,54,Xanomeline Low Dose,54,2013-09-16,2013-09-16,2013-11-03,2013-11-03,2013-09-16,2013-09-16,2013-10-12,2013-10-12,NA,NA,2013-09-16T00:00:00Z,H,2013-10-12T23:59:59Z,H,2013-09-16,2013-10-12,27,DISCONTINUED,2013-11-03,ADVERSE EVENT,NA,NA,NA,Y,Y,2014-03-15,2013-08-25,-22
CDISCPILOT01,01-718-1172,1172,718,USA,74,YEARS,>=65,2,>50,3,M,WHITE,NOT HISPANIC OR LATINO,Placebo,Placebo,Pbo,Pbo,Placebo,0,Placebo,0,2013-09-21,2013-09-21,2013-11-29,2013-11-29,2013-09-21,2013-09-21,2013-11-29,2013-11-29,NA,NA,2013-09-21T00:00:00Z,H,2013-11-29T23:59:59Z,H,2013-09-21,2013-11-29,70,DISCONTINUED,2013-11-29,WITHDRAWAL BY SUBJECT,NA,NA,NA,Y,Y,2014-03-21,2013-09-15,-6
CDISCPILOT01,01-718-1250,1250,718,USA,82,YEARS,>=65,2,>50,3,F,WHITE,HISPANIC OR LATINO,Xanomeline Low Dose,Xanomeline Low Dose,Xan_Lo,Xan_Lo,Xanomeline Low Dose,54,Xanomeline Low Dose,54,2013-09-21,2013-09-21,2014-02-08,2014-02-08,2013-09-21,2013-09-21,2014-01-31,2014-01-31,NA,NA,2013-09-21T00:00:00Z,H,2014-01-31T23:59:59Z,H,2013-09-21,2014-01-31,133,DISCONTINUED,2014-02-08,ADVERSE EVENT,NA,NA,NA,Y,Y,2014-03-08,2013-08-21,-31
CDISCPILOT01,01-718-1254,1254,718,USA,78,YEARS,>=65,2,>50,3,M,WHITE,HISPANIC OR LATINO,Xanomeline Low Dose,Xanomeline Low Dose,Xan_Lo,Xan_Lo,Xanomeline Low Dose,54,Xanomeline Low Dose,54,2013-07-10,2013-07-10,2014-01-09,2014-01-09,2013-07-10,2013-07-10,2014-01-09,2014-01-09,NA,NA,2013-07-10T00:00:00Z,H,2014-01-09T23:59:59Z,H,2013-07-10,2014-01-09,184,COMPLETED,2014-01-09,NA,NA,NA,NA,Y,Y,2014-01-09,2013-06-28,-12
CDISCPILOT01,01-718-1328,1328,718,USA,86,YEARS,>=65,2,>50,3,M,WHITE,NOT HISPANIC OR LATINO,Xanomeline High Dose,Xanomeline High Dose,Xan_Hi,Xan_Hi,Xanomeline High Dose,81,Xanomeline High Dose,81,2013-02-01,2013-02-01,2013-05-01,2013-05-01,2013-02-01,2013-02-01,2013-04-18,2013-04-18,NA,NA,2013-02-01T00:00:00Z,H,2013-04-18T23:59:59Z,H,2013-02-01,2013-04-18,77,DISCONTINUED,2013-05-01,WITHDRAWAL BY SUBJECT,NA,NA,NA,Y,Y,2013-07-24,2013-01-28,-4
CDISCPILOT01,01-718-1355,1355,718,USA,79,YEARS,>=65,2,>50,3,M,WHITE,NOT HISPANIC OR LATINO,Placebo,Placebo,Pbo,Pbo,Placebo,0,Placebo,0,2013-02-28,2013-02-28,2013-08-29,2013-08-29,2013-02-28,2013-02-28,2013-08-29,2013-08-29,NA,NA,2013-02-28T00:00:00Z,H,2013-08-29T23:59:59Z,H,2013-02-28,2013-08-29,183,COMPLETED,2013-08-29,NA,NA,NA,NA,Y,Y,2013-08-29,2013-02-12,-16
CDISCPILOT01,01-718-1371,1371,718,USA,69,YEARS,>=65,2,>50,3,F,WHITE,NOT HISPANIC OR LATINO,Xanomeline High Dose,Xanomeline High Dose,Xan_Hi,Xan_Hi,Xanomeline High Dose,81,Xanomeline High Dose,81,2013-04-26,2013-04-26,2013-08-08,2013-08-08,2013-04-26,2013-04-26,2013-08-01,2013-08-01,NA,NA,2013-04-26T00:00:00Z,H,2013-08-01T23:59:59Z,H,2013-04-26,2013-08-01,98,DISCONTINUED,2013-08-08,ADVERSE EVENT,NA,NA,NA,Y,Y,2013-08-08,2013-04-11,-15
CDISCPILOT01,01-718-1427,1427,718,USA,74,YEARS,>=65,2,>50,3,F,BLACK OR AFRICAN AMERICAN,NOT HISPANIC OR LATINO,Xanomeline High Dose,Xanomeline High Dose,Xan_Hi,Xan_Hi,Xanomeline High Dose,81,Xanomeline High Dose,81,2012-12-17,2012-12-17,2013-02-18,2013-02-18,2012-12-17,2012-12-17,2013-02-11,2013-02-11,NA,NA,2012-12-17T00:00:00Z,H,2013-02-11T23:59:59Z,H,2012-12-17,2013-02-11,57,DISCONTINUED,2013-02-18,LACK OF EFFICACY,NA,NA,NA,Y,Y,2013-06-03,2012-12-13,-4
