sdtm.oak version: 0.2.0
study_ct loaded: 10 terms in codelist C66727
ds_raw: 850 rows x 13 cols
dm:     306 rows x 26 cols
Rows after filtering to non-missing DSTERM: 850
Unique INSTANCE values: 19
oak ID vars generated; patient_number sample: 701-1015, 701-1023, 701-1028

── Building DS domain (sdtm.oak pipeline) ──────────────────────────
DS domain built: 850 rows x 12 cols
Saved: question_1_sdtm/ds.rds
Saved: question_1_sdtm/ds.csv

── Quality Checks ────────────────────────────────────────────────────
dim(ds): 850 x 12

Required variables present:
  All required: TRUE

Unique DSDECOD values:
 [1] "ADVERSE EVENT"               "COMPLETED"                  
 [3] "DEATH"                       "FINAL LAB VISIT"            
 [5] "FINAL RETRIEVAL VISIT"       "LACK OF EFFICACY"           
 [7] "LOST TO FOLLOW-UP"           "PHYSICIAN DECISION"         
 [9] "PROTOCOL VIOLATION"          "RANDOMIZED"                 
[11] "SCREEN FAILURE"              "STUDY TERMINATED BY SPONSOR"
[13] "WITHDRAWAL BY SUBJECT"      

Unique DSCAT values:
[1] "DISPOSITION EVENT"  "OTHER EVENT"        "PROTOCOL MILESTONE"

DSCAT × DSDECOD distribution:
                DSCAT                     DSDECOD   n
1   DISPOSITION EVENT               ADVERSE EVENT  92
2   DISPOSITION EVENT                   COMPLETED 110
3   DISPOSITION EVENT                       DEATH   3
4   DISPOSITION EVENT            LACK OF EFFICACY   4
5   DISPOSITION EVENT           LOST TO FOLLOW-UP   2
6   DISPOSITION EVENT          PHYSICIAN DECISION   3
7   DISPOSITION EVENT          PROTOCOL VIOLATION   6
8   DISPOSITION EVENT              SCREEN FAILURE  52
9   DISPOSITION EVENT STUDY TERMINATED BY SPONSOR   7
10  DISPOSITION EVENT       WITHDRAWAL BY SUBJECT  27
11        OTHER EVENT             FINAL LAB VISIT 254
12        OTHER EVENT       FINAL RETRIEVAL VISIT  36
13 PROTOCOL MILESTONE                  RANDOMIZED 254

Key variable NA counts:
  DSSTDY: 52 NAs
  Rows with NA in DSTERM/DSDECOD/DSCAT: 0

DSSTDY range: -16 to 286 (52 NA)

First 20 rows:
# A tibble: 20 × 12
   STUDYID    DOMAIN USUBJID DSSEQ DSTERM DSDECOD DSCAT VISITNUM VISIT DSDTC
   <chr>      <chr>  <chr>   <int> <chr>  <chr>   <chr>    <dbl> <chr> <iso>
 1 CDISCPILO… DS     01-701…     1 RANDO… RANDOM… PROT…      3   BASE… 2014…
 2 CDISCPILO… DS     01-701…     2 PROTO… COMPLE… DISP…     13   WEEK… 2014…
 3 CDISCPILO… DS     01-701…     3 FINAL… FINAL … OTHE…     13   WEEK… 2014…
 4 CDISCPILO… DS     01-701…     1 RANDO… RANDOM… PROT…      3   BASE… 2012…
 5 CDISCPILO… DS     01-701…     2 ADVER… ADVERS… DISP…      5   WEEK… 2012…
 6 CDISCPILO… DS     01-701…     3 FINAL… FINAL … OTHE…      5   WEEK… 2012…
 7 CDISCPILO… DS     01-701…     4 FINAL… FINAL … OTHE…    201   RETR… 2013…
 8 CDISCPILO… DS     01-701…     1 RANDO… RANDOM… PROT…      3   BASE… 2013…
 9 CDISCPILO… DS     01-701…     2 PROTO… COMPLE… DISP…     13   WEEK… 2014…
10 CDISCPILO… DS     01-701…     3 FINAL… FINAL … OTHE…     13   WEEK… 2014…
11 CDISCPILO… DS     01-701…     1 RANDO… RANDOM… PROT…      3   BASE… 2014…
12 CDISCPILO… DS     01-701…     2 SPONS… STUDY … DISP…      5   WEEK… 2014…
13 CDISCPILO… DS     01-701…     3 FINAL… FINAL … OTHE…      5   WEEK… 2014…
14 CDISCPILO… DS     01-701…     4 FINAL… FINAL … OTHE…    201   RETR… 2014…
15 CDISCPILO… DS     01-701…     1 RANDO… RANDOM… PROT…      3   BASE… 2014…
16 CDISCPILO… DS     01-701…     2 PROTO… COMPLE… DISP…     13   WEEK… 2014…
17 CDISCPILO… DS     01-701…     3 FINAL… FINAL … OTHE…     13   WEEK… 2014…
18 CDISCPILO… DS     01-701…     1 RANDO… RANDOM… PROT…      3   BASE… 2013…
19 CDISCPILO… DS     01-701…     2 ADVER… ADVERS… DISP…      6   AMBU… 2013…
20 CDISCPILO… DS     01-701…     3 FINAL… FINAL … OTHE…      6.1 UNSC… 2013…
# ℹ 2 more variables: DSSTDTC <date>, DSSTDY <int>

== STATUS: SUCCESS — DS domain created error-free ==
Log saved: /Users/emma/Documents/roche/question_1_sdtm/01_log.txt
