STUDYID,DOMAIN,USUBJID,DSSEQ,DSTERM,DSDECOD,DSCAT,VISITNUM,VISIT,DSDTC,DSSTDTC,DSSTDY
CDISCPILOT01,DS,01-701-1015,1,RANDOMIZED,RANDOMIZED,PROTOCOL MILESTONE,3,BASELINE,2014-01-02,2014-01-02,1
CDISCPILOT01,DS,01-701-1015,2,PROTOCOL COMPLETED,COMPLETED,DISPOSITION EVENT,13,WEEK 26,2014-07-02,2014-07-02,182
CDISCPILOT01,DS,01-701-1015,3,FINAL LAB VISIT,FINAL LAB VISIT,OTHER EVENT,13,WEEK 26,2014-07-02T11:45,2014-07-02,182
CDISCPILOT01,DS,01-701-1023,1,RANDOMIZED,RANDOMIZED,PROTOCOL MILESTONE,3,BASELINE,2012-08-05,2012-08-05,1
CDISCPILOT01,DS,01-701-1023,2,ADVERSE EVENT,ADVERSE EVENT,DISPOSITION EVENT,5,WEEK 4,2012-09-02,2012-09-02,29
CDISCPILOT01,DS,01-701-1023,3,FINAL LAB VISIT,FINAL LAB VISIT,OTHER EVENT,5,WEEK 4,2012-09-02T10:15,2012-09-02,29
CDISCPILOT01,DS,01-701-1023,4,FINAL RETRIEVAL VISIT,FINAL RETRIEVAL VISIT,OTHER EVENT,201,RETRIEVAL,2013-02-18,2013-02-18,198
CDISCPILOT01,DS,01-701-1028,1,RANDOMIZED,RANDOMIZED,PROTOCOL MILESTONE,3,BASELINE,2013-07-19,2013-07-19,1
CDISCPILOT01,DS,01-701-1028,2,PROTOCOL COMPLETED,COMPLETED,DISPOSITION EVENT,13,WEEK 26,2014-01-14,2014-01-14,180
CDISCPILOT01,DS,01-701-1028,3,FINAL LAB VISIT,FINAL LAB VISIT,OTHER EVENT,13,WEEK 26,2014-01-14T11:10,2014-01-14,180
CDISCPILOT01,DS,01-701-1033,1,RANDOMIZED,RANDOMIZED,PROTOCOL MILESTONE,3,BASELINE,2014-03-18,2014-03-18,1
CDISCPILOT01,DS,01-701-1033,2,SPONSOR DECISION (STUDY OR PATIENT DISCONTINUED BY THE SPONSOR),STUDY TERMINATED BY SPONSOR,DISPOSITION EVENT,5,WEEK 4,2014-04-14,2014-04-14,28
CDISCPILOT01,DS,01-701-1033,3,FINAL LAB VISIT,FINAL LAB VISIT,OTHER EVENT,5,WEEK 4,2014-04-14T10:38,2014-04-14,28
CDISCPILOT01,DS,01-701-1033,4,FINAL RETRIEVAL VISIT,FINAL RETRIEVAL VISIT,OTHER EVENT,201,RETRIEVAL,2014-09-15,2014-09-15,182
CDISCPILOT01,DS,01-701-1034,1,RANDOMIZED,RANDOMIZED,PROTOCOL MILESTONE,3,BASELINE,2014-07-01,2014-07-01,1
CDISCPILOT01,DS,01-701-1034,2,PROTOCOL COMPLETED,COMPLETED,DISPOSITION EVENT,13,WEEK 26,2014-12-30,2014-12-30,183
CDISCPILOT01,DS,01-701-1034,3,FINAL LAB VISIT,FINAL LAB VISIT,OTHER EVENT,13,WEEK 26,2014-12-30T09:50,2014-12-30,183
CDISCPILOT01,DS,01-701-1047,1,RANDOMIZED,RANDOMIZED,PROTOCOL MILESTONE,3,BASELINE,2013-02-12,2013-02-12,1
CDISCPILOT01,DS,01-701-1047,2,ADVERSE EVENT,ADVERSE EVENT,DISPOSITION EVENT,6,AMBUL ECG REMOVAL,2013-03-29,2013-03-29,46
CDISCPILOT01,DS,01-701-1047,3,FINAL LAB VISIT,FINAL LAB VISIT,OTHER EVENT,6.1,UNSCHEDULED 6.1,2013-04-07T11:20,2013-04-07,55
CDISCPILOT01,DS,01-701-1047,4,FINAL RETRIEVAL VISIT,FINAL RETRIEVAL VISIT,OTHER EVENT,201,RETRIEVAL,2013-07-28,2013-07-28,167
CDISCPILOT01,DS,01-701-1057,1,SCREEN FAILURE,SCREEN FAILURE,DISPOSITION EVENT,1,SCREENING 1,2013-12-20,2013-12-20,NA
CDISCPILOT01,DS,01-701-1097,1,RANDOMIZED,RANDOMIZED,PROTOCOL MILESTONE,3,BASELINE,2014-01-01,2014-01-01,1
CDISCPILOT01,DS,01-701-1097,2,PROTOCOL COMPLETED,COMPLETED,DISPOSITION EVENT,13,WEEK 26,2014-07-09,2014-07-09,190
CDISCPILOT01,DS,01-701-1097,3,FINAL LAB VISIT,FINAL LAB VISIT,OTHER EVENT,13,WEEK 26,2014-07-09T09:39,2014-07-09,190
CDISCPILOT01,DS,01-701-1111,1,RANDOMIZED,RANDOMIZED,PROTOCOL MILESTONE,3,BASELINE,2012-09-07,2012-09-07,1
CDISCPILOT01,DS,01-701-1111,2,ADVERSE EVENT,ADVERSE EVENT,DISPOSITION EVENT,4,WEEK 2,2012-09-17,2012-09-17,11
CDISCPILOT01,DS,01-701-1111,3,FINAL LAB VISIT,FINAL LAB VISIT,OTHER EVENT,4,WEEK 2,2012-09-17T11:48,2012-09-17,11
CDISCPILOT01,DS,01-701-1111,4,FINAL RETRIEVAL VISIT,FINAL RETRIEVAL VISIT,OTHER EVENT,201,RETRIEVAL,2013-02-22,2013-02-22,169
CDISCPILOT01,DS,01-701-1115,1,RANDOMIZED,RANDOMIZED,PROTOCOL MILESTONE,3,BASELINE,2012-11-30,2012-11-30,1
CDISCPILOT01,DS,01-701-1115,2,ADVERSE EVENT,ADVERSE EVENT,DISPOSITION EVENT,8,WEEK 8,2013-01-23,2013-01-23,55
CDISCPILOT01,DS,01-701-1115,3,FINAL LAB VISIT,FINAL LAB VISIT,OTHER EVENT,8,WEEK 8,2013-01-23T12:13,2013-01-23,55
CDISCPILOT01,DS,01-701-1115,4,FINAL RETRIEVAL VISIT,FINAL RETRIEVAL VISIT,OTHER EVENT,201,RETRIEVAL,2013-05-20,2013-05-20,172
CDISCPILOT01,DS,01-701-1118,1,RANDOMIZED,RANDOMIZED,PROTOCOL MILESTONE,3,BASELINE,2014-03-12,2014-03-12,1
CDISCPILOT01,DS,01-701-1118,2,PROTOCOL COMPLETED,COMPLETED,DISPOSITION EVENT,13,WEEK 26,2014-09-09,2014-09-09,182
CDISCPILOT01,DS,01-701-1118,3,FINAL LAB VISIT,FINAL LAB VISIT,OTHER EVENT,13,WEEK 26,2014-09-09T13:28,2014-09-09,182
CDISCPILOT01,DS,01-701-1130,1,RANDOMIZED,RANDOMIZED,PROTOCOL MILESTONE,3,BASELINE,2014-02-15,2014-02-15,1
CDISCPILOT01,DS,01-701-1130,2,PROTOCOL COMPLETED,COMPLETED,DISPOSITION EVENT,13,WEEK 26,2014-08-16,2014-08-16,183
CDISCPILOT01,DS,01-701-1130,3,FINAL LAB VISIT,FINAL LAB VISIT,OTHER EVENT,13,WEEK 26,2014-08-16T13:10,2014-08-16,183
CDISCPILOT01,DS,01-701-1133,1,RANDOMIZED,RANDOMIZED,PROTOCOL MILESTONE,3,BASELINE,2012-10-28,2012-10-28,1
CDISCPILOT01,DS,01-701-1133,2,PROTOCOL COMPLETED,COMPLETED,DISPOSITION EVENT,13,WEEK 26,2013-04-29,2013-04-29,184
CDISCPILOT01,DS,01-701-1133,3,FINAL LAB VISIT,FINAL LAB VISIT,OTHER EVENT,13,WEEK 26,2013-04-29T10:13,2013-04-29,184
CDISCPILOT01,DS,01-701-1145,1,SCREEN FAILURE,SCREEN FAILURE,DISPOSITION EVENT,1,SCREENING 1,2013-09-05,2013-09-05,NA
CDISCPILOT01,DS,01-701-1146,1,RANDOMIZED,RANDOMIZED,PROTOCOL MILESTONE,3,BASELINE,2013-05-20,2013-05-20,1
CDISCPILOT01,DS,01-701-1146,2,ADVERSE EVENT,ADVERSE EVENT,DISPOSITION EVENT,7,WEEK 6,2013-06-30,2013-06-30,42
CDISCPILOT01,DS,01-701-1146,3,FINAL LAB VISIT,FINAL LAB VISIT,OTHER EVENT,7,WEEK 6,2013-06-30T11:44,2013-06-30,42
CDISCPILOT01,DS,01-701-1148,1,RANDOMIZED,RANDOMIZED,PROTOCOL MILESTONE,3,BASELINE,2013-08-23,2013-08-23,1
CDISCPILOT01,DS,01-701-1148,2,PROTOCOL COMPLETED,COMPLETED,DISPOSITION EVENT,13,WEEK 26,2014-02-20,2014-02-20,182
CDISCPILOT01,DS,01-701-1148,3,FINAL LAB VISIT,FINAL LAB VISIT,OTHER EVENT,13,WEEK 26,2014-02-20T15:07,2014-02-20,182
CDISCPILOT01,DS,01-701-1153,1,RANDOMIZED,RANDOMIZED,PROTOCOL MILESTONE,3,BASELINE,2013-09-23,2013-09-23,1
CDISCPILOT01,DS,01-701-1153,2,PROTOCOL COMPLETED,COMPLETED,DISPOSITION EVENT,13,WEEK 26,2014-04-01,2014-04-01,191
CDISCPILOT01,DS,01-701-1153,3,FINAL LAB VISIT,FINAL LAB VISIT,OTHER EVENT,13,WEEK 26,2014-04-01T14:25,2014-04-01,191
CDISCPILOT01,DS,01-701-1162,1,SCREEN FAILURE,SCREEN FAILURE,DISPOSITION EVENT,1,SCREENING 1,2013-04-18,2013-04-18,NA
CDISCPILOT01,DS,01-701-1176,1,SCREEN FAILURE,SCREEN FAILURE,DISPOSITION EVENT,1,SCREENING 1,2012-09-30,2012-09-30,NA
CDISCPILOT01,DS,01-701-1180,1,RANDOMIZED,RANDOMIZED,PROTOCOL MILESTONE,3,BASELINE,2013-02-12,2013-02-12,1
CDISCPILOT01,DS,01-701-1180,2,ADVERSE EVENT,ADVERSE EVENT,DISPOSITION EVENT,7,WEEK 6,2013-03-23,2013-03-23,40
CDISCPILOT01,DS,01-701-1180,3,FINAL LAB VISIT,FINAL LAB VISIT,OTHER EVENT,7,WEEK 6,2013-03-23T12:45,2013-03-23,40
CDISCPILOT01,DS,01-701-1181,1,RANDOMIZED,RANDOMIZED,PROTOCOL MILESTONE,3,BASELINE,2013-12-05,2013-12-05,1
CDISCPILOT01,DS,01-701-1181,2,ADVERSE EVENT,ADVERSE EVENT,DISPOSITION EVENT,4,WEEK 2,2013-12-12,2013-12-12,8
CDISCPILOT01,DS,01-701-1181,3,FINAL LAB VISIT,FINAL LAB VISIT,OTHER EVENT,4,WEEK 2,2013-12-12T12:09,2013-12-12,8
CDISCPILOT01,DS,01-701-1181,4,FINAL RETRIEVAL VISIT,FINAL RETRIEVAL VISIT,OTHER EVENT,201,RETRIEVAL,2014-05-23,2014-05-23,170
CDISCPILOT01,DS,01-701-1188,1,RANDOMIZED,RANDOMIZED,PROTOCOL MILESTONE,3,BASELINE,2013-02-15,2013-02-15,1
CDISCPILOT01,DS,01-701-1188,2,ADVERSE EVENT,ADVERSE EVENT,DISPOSITION EVENT,7,WEEK 6,2013-03-25,2013-03-25,39
CDISCPILOT01,DS,01-701-1188,3,FINAL LAB VISIT,FINAL LAB VISIT,OTHER EVENT,7,WEEK 6,2013-03-25T15:08,2013-03-25,39
CDISCPILOT01,DS,01-701-1188,4,FINAL RETRIEVAL VISIT,FINAL RETRIEVAL VISIT,OTHER EVENT,201,RETRIEVAL,2013-08-04,2013-08-04,171
CDISCPILOT01,DS,01-701-1192,1,RANDOMIZED,RANDOMIZED,PROTOCOL MILESTONE,3,BASELINE,2012-07-22,2012-07-22,1
CDISCPILOT01,DS,01-701-1192,2,PROTOCOL COMPLETED,COMPLETED,DISPOSITION EVENT,13,WEEK 26,2013-01-20,2013-01-20,183
CDISCPILOT01,DS,01-701-1192,3,FINAL LAB VISIT,FINAL LAB VISIT,OTHER EVENT,13,WEEK 26,2013-01-20T15:47,2013-01-20,183
CDISCPILOT01,DS,01-701-1203,1,RANDOMIZED,RANDOMIZED,PROTOCOL MILESTONE,3,BASELINE,2013-02-02,2013-02-02,1
CDISCPILOT01,DS,01-701-1203,2,PROTOCOL COMPLETED,COMPLETED,DISPOSITION EVENT,13,WEEK 26,2013-08-03,2013-08-03,183
CDISCPILOT01,DS,01-701-1203,3,FINAL LAB VISIT,FINAL LAB VISIT,OTHER EVENT,13,WEEK 26,2013-08-03T10:10,2013-08-03,183
CDISCPILOT01,DS,01-701-1211,1,RANDOMIZED,RANDOMIZED,PROTOCOL MILESTONE,3,BASELINE,2012-11-15,2012-11-15,1
CDISCPILOT01,DS,01-701-1211,2,FINAL LAB VISIT,FINAL LAB VISIT,OTHER EVENT,8,WEEK 8,2013-01-08T12:13,2013-01-08,55
CDISCPILOT01,DS,01-701-1211,3,DEATH,DEATH,DISPOSITION EVENT,9,WEEK 12,2013-01-14,2013-01-14,61
CDISCPILOT01,DS,01-701-1234,1,RANDOMIZED,RANDOMIZED,PROTOCOL MILESTONE,3,BASELINE,2013-03-30,2013-03-30,1
CDISCPILOT01,DS,01-701-1234,2,PROTOCOL COMPLETED,COMPLETED,DISPOSITION EVENT,13,WEEK 26,2013-09-22,2013-09-22,177
CDISCPILOT01,DS,01-701-1234,3,FINAL LAB VISIT,FINAL LAB VISIT,OTHER EVENT,13,WEEK 26,2013-09-22T09:25,2013-09-22,177
CDISCPILOT01,DS,01-701-1239,1,RANDOMIZED,RANDOMIZED,PROTOCOL MILESTONE,3,BASELINE,2014-01-11,2014-01-11,1
CDISCPILOT01,DS,01-701-1239,2,PROTOCOL COMPLETED,COMPLETED,DISPOSITION EVENT,13,WEEK 26,2014-07-11,2014-07-11,182
CDISCPILOT01,DS,01-701-1239,3,FINAL LAB VISIT,FINAL LAB VISIT,OTHER EVENT,13,WEEK 26,2014-07-11T15:40,2014-07-11,182
CDISCPILOT01,DS,01-701-1240,1,SCREEN FAILURE,SCREEN FAILURE,DISPOSITION EVENT,1,SCREENING 1,2013-09-22,2013-09-22,NA
CDISCPILOT01,DS,01-701-1275,1,RANDOMIZED,RANDOMIZED,PROTOCOL MILESTONE,3,BASELINE,2014-02-07,2014-02-07,1
CDISCPILOT01,DS,01-701-1275,2,WITHDRAW CONSENT,WITHDRAWAL BY SUBJECT,DISPOSITION EVENT,10,WEEK 16,2014-06-14,2014-06-14,128
CDISCPILOT01,DS,01-701-1275,3,FINAL LAB VISIT,FINAL LAB VISIT,OTHER EVENT,10,WEEK 16,2014-06-14T12:35,2014-06-14,128
CDISCPILOT01,DS,01-701-1287,1,RANDOMIZED,RANDOMIZED,PROTOCOL MILESTONE,3,BASELINE,2014-01-25,2014-01-25,1
CDISCPILOT01,DS,01-701-1287,2,PROTOCOL COMPLETED,COMPLETED,DISPOSITION EVENT,13,WEEK 26,2014-07-26,2014-07-26,183
CDISCPILOT01,DS,01-701-1287,3,FINAL LAB VISIT,FINAL LAB VISIT,OTHER EVENT,13,WEEK 26,2014-07-26T13:15,2014-07-26,183
CDISCPILOT01,DS,01-701-1294,1,RANDOMIZED,RANDOMIZED,PROTOCOL MILESTONE,3,BASELINE,2013-03-24,2013-03-24,1
CDISCPILOT01,DS,01-701-1294,2,ADVERSE EVENT,ADVERSE EVENT,DISPOSITION EVENT,9,WEEK 12,2013-06-14,2013-06-14,83
CDISCPILOT01,DS,01-701-1294,3,FINAL LAB VISIT,FINAL LAB VISIT,OTHER EVENT,9,WEEK 12,2013-06-14T09:47,2013-06-14,83
CDISCPILOT01,DS,01-701-1294,4,FINAL RETRIEVAL VISIT,FINAL RETRIEVAL VISIT,OTHER EVENT,201,RETRIEVAL,2013-10-08,2013-10-08,199
CDISCPILOT01,DS,01-701-1302,1,RANDOMIZED,RANDOMIZED,PROTOCOL MILESTONE,3,BASELINE,2013-08-29,2013-08-29,1
CDISCPILOT01,DS,01-701-1302,2,ADVERSE EVENT,ADVERSE EVENT,DISPOSITION EVENT,9,WEEK 12,2013-11-05,2013-11-05,69
CDISCPILOT01,DS,01-701-1302,3,FINAL LAB VISIT,FINAL LAB VISIT,OTHER EVENT,9,WEEK 12,2013-11-05T13:54,2013-11-05,69
CDISCPILOT01,DS,01-701-1302,4,FINAL RETRIEVAL VISIT,FINAL RETRIEVAL VISIT,OTHER EVENT,201,RETRIEVAL,2014-02-13,2014-02-13,169
CDISCPILOT01,DS,01-701-1307,1,SCREEN FAILURE,SCREEN FAILURE,DISPOSITION EVENT,1,SCREENING 1,2013-12-08,2013-12-08,NA
CDISCPILOT01,DS,01-701-1317,1,RANDOMIZED,RANDOMIZED,PROTOCOL MILESTONE,3,BASELINE,2014-05-22,2014-05-22,1
CDISCPILOT01,DS,01-701-1317,2,PROTOCOL COMPLETED,COMPLETED,DISPOSITION EVENT,13,WEEK 26,2014-11-20,2014-11-20,183
CDISCPILOT01,DS,01-701-1317,3,FINAL LAB VISIT,FINAL LAB VISIT,OTHER EVENT,13,WEEK 26,2014-11-20T11:54,2014-11-20,183
CDISCPILOT01,DS,01-701-1324,1,RANDOMIZED,RANDOMIZED,PROTOCOL MILESTONE,3,BASELINE,2012-10-02,2012-10-02,1
CDISCPILOT01,DS,01-701-1324,2,PROTOCOL COMPLETED,COMPLETED,DISPOSITION EVENT,13,WEEK 26,2013-04-02,2013-04-02,183
CDISCPILOT01,DS,01-701-1324,3,FINAL LAB VISIT,FINAL LAB VISIT,OTHER EVENT,13,WEEK 26,2013-04-02T11:35,2013-04-02,183
CDISCPILOT01,DS,01-701-1341,1,RANDOMIZED,RANDOMIZED,PROTOCOL MILESTONE,3,BASELINE,2013-01-05,2013-01-05,1
CDISCPILOT01,DS,01-701-1341,2,ADVERSE EVENT,ADVERSE EVENT,DISPOSITION EVENT,5,WEEK 4,2013-02-07,2013-02-07,34
CDISCPILOT01,DS,01-701-1341,3,FINAL LAB VISIT,FINAL LAB VISIT,OTHER EVENT,5,WEEK 4,2013-02-07T15:16,2013-02-07,34
CDISCPILOT01,DS,01-701-1345,1,RANDOMIZED,RANDOMIZED,PROTOCOL MILESTONE,3,BASELINE,2013-10-08,2013-10-08,1
CDISCPILOT01,DS,01-701-1345,2,SPONSOR DECISION (STUDY OR PATIENT DISCONTINUED BY THE SPONSOR),STUDY TERMINATED BY SPONSOR,DISPOSITION EVENT,12,WEEK 24,2014-03-18,2014-03-18,162
CDISCPILOT01,DS,01-701-1345,3,FINAL LAB VISIT,FINAL LAB VISIT,OTHER EVENT,12,WEEK 24,2014-03-18T14:12,2014-03-18,162
CDISCPILOT01,DS,01-701-1356,1,SCREEN FAILURE,SCREEN FAILURE,DISPOSITION EVENT,1,SCREENING 1,2014-04-01,2014-04-01,NA
CDISCPILOT01,DS,01-701-1360,1,RANDOMIZED,RANDOMIZED,PROTOCOL MILESTONE,3,BASELINE,2013-07-31,2013-07-31,1
CDISCPILOT01,DS,01-701-1360,2,PMD DECISION DUE TO AE'S,PHYSICIAN DECISION,DISPOSITION EVENT,4,WEEK 2,2013-08-14,2013-08-14,15
CDISCPILOT01,DS,01-701-1360,3,FINAL LAB VISIT,FINAL LAB VISIT,OTHER EVENT,4,WEEK 2,2013-08-14T15:17,2013-08-14,15
CDISCPILOT01,DS,01-701-1360,4,FINAL RETRIEVAL VISIT,FINAL RETRIEVAL VISIT,OTHER EVENT,201,RETRIEVAL,2014-02-11,2014-02-11,196
CDISCPILOT01,DS,01-701-1363,1,RANDOMIZED,RANDOMIZED,PROTOCOL MILESTONE,3,BASELINE,2013-05-30,2013-05-30,1
CDISCPILOT01,DS,01-701-1363,2,PROTOCOL COMPLETED,COMPLETED,DISPOSITION EVENT,13,WEEK 26,2013-11-27,2013-11-27,182
CDISCPILOT01,DS,01-701-1363,3,FINAL LAB VISIT,FINAL LAB VISIT,OTHER EVENT,13,WEEK 26,2013-11-27T10:00,2013-11-27,182
CDISCPILOT01,DS,01-701-1369,1,SCREEN FAILURE,SCREEN FAILURE,DISPOSITION EVENT,1,SCREENING 1,2013-09-18,2013-09-18,NA
CDISCPILOT01,DS,01-701-1383,1,RANDOMIZED,RANDOMIZED,PROTOCOL MILESTONE,3,BASELINE,2013-02-04,2013-02-04,1
CDISCPILOT01,DS,01-701-1383,2,PROTOCOL COMPLETED,COMPLETED,DISPOSITION EVENT,13,WEEK 26,2013-08-06,2013-08-06,184
CDISCPILOT01,DS,01-701-1383,3,FINAL LAB VISIT,FINAL LAB VISIT,OTHER EVENT,13,WEEK 26,2013-08-06T12:00,2013-08-06,184
CDISCPILOT01,DS,01-701-1386,1,SCREEN FAILURE,SCREEN FAILURE,DISPOSITION EVENT,1,SCREENING 1,2013-12-28,2013-12-28,NA
CDISCPILOT01,DS,01-701-1387,1,RANDOMIZED,RANDOMIZED,PROTOCOL MILESTONE,3,BASELINE,2014-03-12,2014-03-12,1
CDISCPILOT01,DS,01-701-1387,2,PROTOCOL VIOLATION,PROTOCOL VIOLATION,DISPOSITION EVENT,4,WEEK 2,2014-03-25,2014-03-25,14
CDISCPILOT01,DS,01-701-1387,3,FINAL LAB VISIT,FINAL LAB VISIT,OTHER EVENT,4,WEEK 2,2014-03-25T10:40,2014-03-25,14
CDISCPILOT01,DS,01-701-1387,4,FINAL RETRIEVAL VISIT,FINAL RETRIEVAL VISIT,OTHER EVENT,201,RETRIEVAL,2014-08-27,2014-08-27,169
CDISCPILOT01,DS,01-701-1392,1,RANDOMIZED,RANDOMIZED,PROTOCOL MILESTONE,3,BASELINE,2012-10-28,2012-10-28,1
CDISCPILOT01,DS,01-701-1392,2,PROTOCOL COMPLETED,COMPLETED,DISPOSITION EVENT,13,WEEK 26,2013-04-28,2013-04-28,183
CDISCPILOT01,DS,01-701-1392,3,FINAL LAB VISIT,FINAL LAB VISIT,OTHER EVENT,13,WEEK 26,2013-04-28T11:30,2013-04-28,183
CDISCPILOT01,DS,01-701-1411,1,SCREEN FAILURE,SCREEN FAILURE,DISPOSITION EVENT,1,SCREENING 1,2012-11-14,2012-11-14,NA
CDISCPILOT01,DS,01-701-1415,1,RANDOMIZED,RANDOMIZED,PROTOCOL MILESTONE,3,BASELINE,2013-09-23,2013-09-23,1
CDISCPILOT01,DS,01-701-1415,2,PROTOCOL COMPLETED,COMPLETED,DISPOSITION EVENT,13,WEEK 26,2014-03-24,2014-03-24,183
CDISCPILOT01,DS,01-701-1415,3,FINAL LAB VISIT,FINAL LAB VISIT,OTHER EVENT,13,WEEK 26,2014-03-24T12:34,2014-03-24,183
CDISCPILOT01,DS,01-701-1429,1,RANDOMIZED,RANDOMIZED,PROTOCOL MILESTONE,3,BASELINE,2013-03-19,2013-03-19,1
CDISCPILOT01,DS,01-701-1429,2,WITHDRAW CONSENT DUE TO COMPLIANCY ISSUE,WITHDRAWAL BY SUBJECT,DISPOSITION EVENT,7,WEEK 6,2013-04-30,2013-04-30,43
CDISCPILOT01,DS,01-701-1429,3,FINAL LAB VISIT,FINAL LAB VISIT,OTHER EVENT,7,WEEK 6,2013-04-30T12:22,2013-04-30,43
CDISCPILOT01,DS,01-701-1440,1,RANDOMIZED,RANDOMIZED,PROTOCOL MILESTONE,3,BASELINE,2013-08-08,2013-08-08,1
CDISCPILOT01,DS,01-701-1440,2,PROTOCOL COMPLETED,COMPLETED,DISPOSITION EVENT,13,WEEK 26,2014-02-05,2014-02-05,182
CDISCPILOT01,DS,01-701-1440,3,FINAL LAB VISIT,FINAL LAB VISIT,OTHER EVENT,13,WEEK 26,2014-02-05T11:25,2014-02-05,182
CDISCPILOT01,DS,01-701-1442,1,RANDOMIZED,RANDOMIZED,PROTOCOL MILESTONE,3,BASELINE,2013-10-26,2013-10-26,1
CDISCPILOT01,DS,01-701-1442,2,PROTOCOL COMPLETED,COMPLETED,DISPOSITION EVENT,13,WEEK 26,2014-04-26,2014-04-26,183
CDISCPILOT01,DS,01-701-1442,3,FINAL LAB VISIT,FINAL LAB VISIT,OTHER EVENT,13,WEEK 26,2014-04-26T10:00,2014-04-26,183
CDISCPILOT01,DS,01-701-1444,1,RANDOMIZED,RANDOMIZED,PROTOCOL MILESTONE,3,BASELINE,2013-01-05,2013-01-05,1
CDISCPILOT01,DS,01-701-1444,2,ADVERSE EVENT,ADVERSE EVENT,DISPOSITION EVENT,7,WEEK 6,2013-02-13,2013-02-13,40
CDISCPILOT01,DS,01-701-1444,3,FINAL LAB VISIT,FINAL LAB VISIT,OTHER EVENT,7,WEEK 6,2013-02-13T15:53,2013-02-13,40
CDISCPILOT01,DS,01-701-1444,4,FINAL RETRIEVAL VISIT,FINAL RETRIEVAL VISIT,OTHER EVENT,201,RETRIEVAL,2013-06-20,2013-06-20,167
CDISCPILOT01,DS,01-702-1082,1,RANDOMIZED,RANDOMIZED,PROTOCOL MILESTONE,3,BASELINE,2013-07-26,2013-07-26,1
CDISCPILOT01,DS,01-702-1082,2,"PT FINDS PATCHES""INCONVENIENT & ITCHY;PT PREFERS'PILLS'""",WITHDRAWAL BY SUBJECT,DISPOSITION EVENT,9,WEEK 12,2013-11-17,2013-11-17,115
CDISCPILOT01,DS,01-702-1082,3,FINAL LAB VISIT,FINAL LAB VISIT,OTHER EVENT,9,WEEK 12,2013-11-17T12:20,2013-11-17,115
CDISCPILOT01,DS,01-703-1042,1,RANDOMIZED,RANDOMIZED,PROTOCOL MILESTONE,3,BASELINE,2013-03-02,2013-03-02,1
CDISCPILOT01,DS,01-703-1042,2,PROTOCOL COMPLETED,COMPLETED,DISPOSITION EVENT,13,WEEK 26,2013-08-31,2013-08-31,183
CDISCPILOT01,DS,01-703-1042,3,FINAL LAB VISIT,FINAL LAB VISIT,OTHER EVENT,13,WEEK 26,2013-08-31T11:00,2013-08-31,183
CDISCPILOT01,DS,01-703-1076,1,RANDOMIZED,RANDOMIZED,PROTOCOL MILESTONE,3,BASELINE,2013-10-25,2013-10-25,1
CDISCPILOT01,DS,01-703-1076,2,ADVERSE EVENT,ADVERSE EVENT,DISPOSITION EVENT,9,WEEK 12,2013-12-24,2013-12-24,61
CDISCPILOT01,DS,01-703-1076,3,FINAL LAB VISIT,FINAL LAB VISIT,OTHER EVENT,9,WEEK 12,2013-12-24T13:05,2013-12-24,61
CDISCPILOT01,DS,01-703-1086,1,RANDOMIZED,RANDOMIZED,PROTOCOL MILESTONE,3,BASELINE,2012-09-02,2012-09-02,1
CDISCPILOT01,DS,01-703-1086,2,ADVERSE EVENT,ADVERSE EVENT,DISPOSITION EVENT,10,WEEK 16,2012-12-24,2012-12-24,114
CDISCPILOT01,DS,01-703-1086,3,FINAL LAB VISIT,FINAL LAB VISIT,OTHER EVENT,10,WEEK 16,2012-12-24T09:30,2012-12-24,114
CDISCPILOT01,DS,01-703-1086,4,FINAL RETRIEVAL VISIT,FINAL RETRIEVAL VISIT,OTHER EVENT,201,RETRIEVAL,2013-03-26,2013-03-26,206
CDISCPILOT01,DS,01-703-1096,1,RANDOMIZED,RANDOMIZED,PROTOCOL MILESTONE,3,BASELINE,2013-01-25,2013-01-25,1
CDISCPILOT01,DS,01-703-1096,2,FINAL LAB VISIT,FINAL LAB VISIT,OTHER EVENT,5,WEEK 4,2013-02-23T17:10,2013-02-23,30
CDISCPILOT01,DS,01-703-1096,3,UNABLE TO CONTACT PATIENT (LOST TO FOLLOW-UP),LOST TO FOLLOW-UP,DISPOSITION EVENT,7,WEEK 6,2013-03-29,2013-03-29,64
CDISCPILOT01,DS,01-703-1100,1,RANDOMIZED,RANDOMIZED,PROTOCOL MILESTONE,3,BASELINE,2013-03-13,2013-03-13,1
CDISCPILOT01,DS,01-703-1100,2,PROTOCOL COMPLETED,COMPLETED,DISPOSITION EVENT,13,WEEK 26,2013-09-14,2013-09-14,186
CDISCPILOT01,DS,01-703-1100,3,FINAL LAB VISIT,FINAL LAB VISIT,OTHER EVENT,13,WEEK 26,2013-09-14T15:00,2013-09-14,186
CDISCPILOT01,DS,01-703-1119,1,RANDOMIZED,RANDOMIZED,PROTOCOL MILESTONE,3,BASELINE,2013-02-20,2013-02-20,1
CDISCPILOT01,DS,01-703-1119,2,ADVERSE EVENT,ADVERSE EVENT,DISPOSITION EVENT,10,WEEK 16,2013-06-13,2013-06-13,114
CDISCPILOT01,DS,01-703-1119,3,FINAL LAB VISIT,FINAL LAB VISIT,OTHER EVENT,10,WEEK 16,2013-06-13T12:15,2013-06-13,114
CDISCPILOT01,DS,01-703-1119,4,FINAL RETRIEVAL VISIT,FINAL RETRIEVAL VISIT,OTHER EVENT,201,RETRIEVAL,2013-08-24,2013-08-24,186
CDISCPILOT01,DS,01-703-1175,1,RANDOMIZED,RANDOMIZED,PROTOCOL MILESTONE,3,BASELINE,2013-12-20,2013-12-20,1
CDISCPILOT01,DS,01-703-1175,2,PROTOCOL ENTRY CRITERIA NOT MET,PROTOCOL VIOLATION,DISPOSITION EVENT,4,WEEK 2,2013-12-31,2013-12-31,12
CDISCPILOT01,DS,01-703-1175,3,FINAL LAB VISIT,FINAL LAB VISIT,OTHER EVENT,4,WEEK 2,2013-12-31T13:15,2013-12-31,12
CDISCPILOT01,DS,01-703-1182,1,RANDOMIZED,RANDOMIZED,PROTOCOL MILESTONE,3,BASELINE,2013-10-17,2013-10-17,1
CDISCPILOT01,DS,01-703-1182,2,ADVERSE EVENT,ADVERSE EVENT,DISPOSITION EVENT,8,WEEK 8,2013-12-12,2013-12-12,57
CDISCPILOT01,DS,01-703-1182,3,FINAL LAB VISIT,FINAL LAB VISIT,OTHER EVENT,8,WEEK 8,2013-12-12T13:10,2013-12-12,57
CDISCPILOT01,DS,01-703-1197,1,FINAL LAB VISIT,FINAL LAB VISIT,OTHER EVENT,1.1,UNSCHEDULED 1.1,2013-06-01T10:00,2013-06-01,-15
CDISCPILOT01,DS,01-703-1197,2,RANDOMIZED,RANDOMIZED,PROTOCOL MILESTONE,3,BASELINE,2013-06-16,2013-06-16,1
CDISCPILOT01,DS,01-703-1197,3,CAREGIVER DECISION:  SEE COMMENT PAGE,WITHDRAWAL BY SUBJECT,DISPOSITION EVENT,4,WEEK 2,2013-07-22,2013-07-22,37
CDISCPILOT01,DS,01-703-1210,1,RANDOMIZED,RANDOMIZED,PROTOCOL MILESTONE,3,BASELINE,2013-03-16,2013-03-16,1
CDISCPILOT01,DS,01-703-1210,2,PROTOCOL COMPLETED,COMPLETED,DISPOSITION EVENT,13,WEEK 26,2013-09-06,2013-09-06,175
CDISCPILOT01,DS,01-703-1210,3,FINAL LAB VISIT,FINAL LAB VISIT,OTHER EVENT,13,WEEK 26,2013-09-06T13:30,2013-09-06,175
CDISCPILOT01,DS,01-703-1258,1,RANDOMIZED,RANDOMIZED,PROTOCOL MILESTONE,3,BASELINE,2012-07-20,2012-07-20,1
CDISCPILOT01,DS,01-703-1258,2,FINAL LAB VISIT,FINAL LAB VISIT,OTHER EVENT,12,WEEK 24,2012-12-31T11:30,2012-12-31,165
CDISCPILOT01,DS,01-703-1258,3,ADVERSE EVENT,ADVERSE EVENT,DISPOSITION EVENT,13,WEEK 26,2013-01-21,2013-01-21,186
CDISCPILOT01,DS,01-703-1279,1,FINAL LAB VISIT,FINAL LAB VISIT,OTHER EVENT,1,SCREENING 1,2013-04-27T11:00,2013-04-27,-16
CDISCPILOT01,DS,01-703-1279,2,RANDOMIZED,RANDOMIZED,PROTOCOL MILESTONE,3,BASELINE,2013-05-13,2013-05-13,1
CDISCPILOT01,DS,01-703-1279,3,CAREGIVER BECAME ILL,WITHDRAWAL BY SUBJECT,DISPOSITION EVENT,4,WEEK 2,2013-06-22,2013-06-22,41
CDISCPILOT01,DS,01-703-1295,1,RANDOMIZED,RANDOMIZED,PROTOCOL MILESTONE,3,BASELINE,2013-11-21,2013-11-21,1
CDISCPILOT01,DS,01-703-1295,2,FAMILY WISHES TO DISCONTINUE,WITHDRAWAL BY SUBJECT,DISPOSITION EVENT,11,WEEK 20,2014-05-19,2014-05-19,180
CDISCPILOT01,DS,01-703-1295,3,FINAL LAB VISIT,FINAL LAB VISIT,OTHER EVENT,11,WEEK 20,2014-05-19T14:45,2014-05-19,180
CDISCPILOT01,DS,01-703-1299,1,RANDOMIZED,RANDOMIZED,PROTOCOL MILESTONE,3,BASELINE,2012-09-12,2012-09-12,1
CDISCPILOT01,DS,01-703-1299,2,PROTOCOL COMPLETED,COMPLETED,DISPOSITION EVENT,13,WEEK 26,2013-03-13,2013-03-13,183
CDISCPILOT01,DS,01-703-1299,3,FINAL LAB VISIT,FINAL LAB VISIT,OTHER EVENT,13,WEEK 26,2013-03-13T11:40,2013-03-13,183
CDISCPILOT01,DS,01-703-1335,1,RANDOMIZED,RANDOMIZED,PROTOCOL MILESTONE,3,BASELINE,2014-03-17,2014-03-17,1
CDISCPILOT01,DS,01-703-1335,2,PROTOCOL VIOLATION,PROTOCOL VIOLATION,DISPOSITION EVENT,7,WEEK 6,2014-05-24,2014-05-24,69
CDISCPILOT01,DS,01-703-1335,3,FINAL LAB VISIT,FINAL LAB VISIT,OTHER EVENT,7,WEEK 6,2014-05-24T12:15,2014-05-24,69
CDISCPILOT01,DS,01-703-1379,1,RANDOMIZED,RANDOMIZED,PROTOCOL MILESTONE,3,BASELINE,2013-09-22,2013-09-22,1
CDISCPILOT01,DS,01-703-1379,2,PROTOCOL COMPLETED,COMPLETED,DISPOSITION EVENT,13,WEEK 26,2014-03-21,2014-03-21,181
CDISCPILOT01,DS,01-703-1379,3,FINAL LAB VISIT,FINAL LAB VISIT,OTHER EVENT,13,WEEK 26,2014-03-21T10:55,2014-03-21,181
CDISCPILOT01,DS,01-703-1396,1,SCREEN FAILURE,SCREEN FAILURE,DISPOSITION EVENT,1,SCREENING 1,2014-02-09,2014-02-09,NA
CDISCPILOT01,DS,01-703-1403,1,RANDOMIZED,RANDOMIZED,PROTOCOL MILESTONE,3,BASELINE,2012-12-12,2012-12-12,1
CDISCPILOT01,DS,01-703-1403,2,ADVERSE EVENT,ADVERSE EVENT,DISPOSITION EVENT,4,WEEK 2,2012-12-19,2012-12-19,8
CDISCPILOT01,DS,01-703-1403,3,FINAL LAB VISIT,FINAL LAB VISIT,OTHER EVENT,4,WEEK 2,2012-12-19T10:15,2012-12-19,8
CDISCPILOT01,DS,01-703-1439,1,RANDOMIZED,RANDOMIZED,PROTOCOL MILESTONE,3,BASELINE,2014-03-12,2014-03-12,1
CDISCPILOT01,DS,01-703-1439,2,PROTOCOL COMPLETED,COMPLETED,DISPOSITION EVENT,13,WEEK 26,2014-09-11,2014-09-11,184
CDISCPILOT01,DS,01-703-1439,3,FINAL LAB VISIT,FINAL LAB VISIT,OTHER EVENT,13,WEEK 26,2014-09-11T12:40,2014-09-11,184
CDISCPILOT01,DS,01-704-1008,1,RANDOMIZED,RANDOMIZED,PROTOCOL MILESTONE,3,BASELINE,2013-01-13,2013-01-13,1
CDISCPILOT01,DS,01-704-1008,2,ADVERSE EVENT,ADVERSE EVENT,DISPOSITION EVENT,7,WEEK 6,2013-02-25,2013-02-25,44
CDISCPILOT01,DS,01-704-1008,3,FINAL LAB VISIT,FINAL LAB VISIT,OTHER EVENT,7,WEEK 6,2013-02-25T11:00,2013-02-25,44
CDISCPILOT01,DS,01-704-1009,1,RANDOMIZED,RANDOMIZED,PROTOCOL MILESTONE,3,BASELINE,2013-08-27,2013-08-27,1
CDISCPILOT01,DS,01-704-1009,2,FINAL LAB VISIT,FINAL LAB VISIT,OTHER EVENT,4,WEEK 2,2013-09-14T15:00,2013-09-14,19
CDISCPILOT01,DS,01-704-1009,3,TOO TIME CONSUMING;PT REFUSED FUTURE HOLTERS,WITHDRAWAL BY SUBJECT,DISPOSITION EVENT,5,WEEK 4,2013-10-02,2013-10-02,37
CDISCPILOT01,DS,01-704-1010,1,RANDOMIZED,RANDOMIZED,PROTOCOL MILESTONE,3,BASELINE,2014-02-21,2014-02-21,1
CDISCPILOT01,DS,01-704-1010,2,PATIENT IS MOVING,WITHDRAWAL BY SUBJECT,DISPOSITION EVENT,11,WEEK 20,2014-07-09,2014-07-09,139
CDISCPILOT01,DS,01-704-1010,3,FINAL LAB VISIT,FINAL LAB VISIT,OTHER EVENT,11,WEEK 20,2014-07-09T11:00,2014-07-09,139
CDISCPILOT01,DS,01-704-1017,1,RANDOMIZED,RANDOMIZED,PROTOCOL MILESTONE,3,BASELINE,2013-10-06,2013-10-06,1
CDISCPILOT01,DS,01-704-1017,2,FINAL LAB VISIT,FINAL LAB VISIT,OTHER EVENT,5,WEEK 4,2013-11-01T10:45,2013-11-01,27
CDISCPILOT01,DS,01-704-1017,3,ADVERSE EVENT,ADVERSE EVENT,DISPOSITION EVENT,7,WEEK 6,2013-11-24,2013-11-24,50
CDISCPILOT01,DS,01-704-1025,1,RANDOMIZED,RANDOMIZED,PROTOCOL MILESTONE,3,BASELINE,2013-09-27,2013-09-27,1
CDISCPILOT01,DS,01-704-1025,2,ADVERSE EVENT,ADVERSE EVENT,DISPOSITION EVENT,6,AMBUL ECG REMOVAL,2013-11-29,2013-11-29,64
CDISCPILOT01,DS,01-704-1025,3,FINAL LAB VISIT,FINAL LAB VISIT,OTHER EVENT,6,AMBUL ECG REMOVAL,2013-11-29T12:00,2013-11-29,64
CDISCPILOT01,DS,01-704-1065,1,RANDOMIZED,RANDOMIZED,PROTOCOL MILESTONE,3,BASELINE,2013-10-24,2013-10-24,1
CDISCPILOT01,DS,01-704-1065,2,ADVERSE EVENT,ADVERSE EVENT,DISPOSITION EVENT,9,WEEK 12,2013-12-24,2013-12-24,62
CDISCPILOT01,DS,01-704-1065,3,FINAL LAB VISIT,FINAL LAB VISIT,OTHER EVENT,9,WEEK 12,2013-12-24T11:45,2013-12-24,62
CDISCPILOT01,DS,01-704-1074,1,RANDOMIZED,RANDOMIZED,PROTOCOL MILESTONE,3,BASELINE,2014-01-22,2014-01-22,1
CDISCPILOT01,DS,01-704-1074,2,ADVERSE EVENT,ADVERSE EVENT,DISPOSITION EVENT,8,WEEK 8,2014-03-31,2014-03-31,69
CDISCPILOT01,DS,01-704-1074,3,FINAL LAB VISIT,FINAL LAB VISIT,OTHER EVENT,8,WEEK 8,2014-03-31T10:30,2014-03-31,69
CDISCPILOT01,DS,01-704-1093,1,RANDOMIZED,RANDOMIZED,PROTOCOL MILESTONE,3,BASELINE,2013-03-15,2013-03-15,1
CDISCPILOT01,DS,01-704-1093,2,ADVERSE EVENT,ADVERSE EVENT,DISPOSITION EVENT,10,WEEK 16,2013-06-20,2013-06-20,98
CDISCPILOT01,DS,01-704-1093,3,FINAL LAB VISIT,FINAL LAB VISIT,OTHER EVENT,10,WEEK 16,2013-06-20T11:10,2013-06-20,98
CDISCPILOT01,DS,01-704-1093,4,FINAL RETRIEVAL VISIT,FINAL RETRIEVAL VISIT,OTHER EVENT,201,RETRIEVAL,2013-12-25,2013-12-25,286
CDISCPILOT01,DS,01-704-1114,1,RANDOMIZED,RANDOMIZED,PROTOCOL MILESTONE,3,BASELINE,2013-01-23,2013-01-23,1
CDISCPILOT01,DS,01-704-1114,2,LEAVING AREA FOR 5 MONTHS,WITHDRAWAL BY SUBJECT,DISPOSITION EVENT,12,WEEK 24,2013-07-08,2013-07-08,167
CDISCPILOT01,DS,01-704-1114,3,FINAL LAB VISIT,FINAL LAB VISIT,OTHER EVENT,12,WEEK 24,2013-07-08T09:56,2013-07-08,167
CDISCPILOT01,DS,01-704-1120,1,RANDOMIZED,RANDOMIZED,PROTOCOL MILESTONE,3,BASELINE,2013-12-02,2013-12-02,1
CDISCPILOT01,DS,01-704-1120,2,ADVERSE EVENT,ADVERSE EVENT,DISPOSITION EVENT,9,WEEK 12,2014-02-03,2014-02-03,64
CDISCPILOT01,DS,01-704-1120,3,FINAL LAB VISIT,FINAL LAB VISIT,OTHER EVENT,9,WEEK 12,2014-02-03T11:50,2014-02-03,64
CDISCPILOT01,DS,01-704-1127,1,RANDOMIZED,RANDOMIZED,PROTOCOL MILESTONE,3,BASELINE,2013-10-02,2013-10-02,1
CDISCPILOT01,DS,01-704-1127,2,PROTOCOL COMPLETED,COMPLETED,DISPOSITION EVENT,13,WEEK 26,2014-03-31,2014-03-31,181
CDISCPILOT01,DS,01-704-1127,3,FINAL LAB VISIT,FINAL LAB VISIT,OTHER EVENT,13,WEEK 26,2014-03-31T11:30,2014-03-31,181
CDISCPILOT01,DS,01-704-1135,1,RANDOMIZED,RANDOMIZED,PROTOCOL MILESTONE,3,BASELINE,2013-10-31,2013-10-31,1
CDISCPILOT01,DS,01-704-1135,2,PROTOCOL COMPLETED,COMPLETED,DISPOSITION EVENT,13,WEEK 26,2014-05-16,2014-05-16,198
CDISCPILOT01,DS,01-704-1135,3,FINAL LAB VISIT,FINAL LAB VISIT,OTHER EVENT,13,WEEK 26,2014-05-16T09:45,2014-05-16,198
CDISCPILOT01,DS,01-704-1164,1,RANDOMIZED,RANDOMIZED,PROTOCOL MILESTONE,3,BASELINE,2012-09-19,2012-09-19,1
CDISCPILOT01,DS,01-704-1164,2,PROTOCOL COMPLETED,COMPLETED,DISPOSITION EVENT,13,WEEK 26,2013-04-04,2013-04-04,198
CDISCPILOT01,DS,01-704-1164,3,FINAL LAB VISIT,FINAL LAB VISIT,OTHER EVENT,13,WEEK 26,2013-04-04,2013-04-04,198
CDISCPILOT01,DS,01-704-1218,1,RANDOMIZED,RANDOMIZED,PROTOCOL MILESTONE,3,BASELINE,2012-11-19,2012-11-19,1
CDISCPILOT01,DS,01-704-1218,2,PROTOCOL COMPLETED,COMPLETED,DISPOSITION EVENT,13,WEEK 26,2013-05-27,2013-05-27,190
CDISCPILOT01,DS,01-704-1218,3,FINAL LAB VISIT,FINAL LAB VISIT,OTHER EVENT,13,WEEK 26,2013-05-27T11:20,2013-05-27,190
CDISCPILOT01,DS,01-704-1233,1,RANDOMIZED,RANDOMIZED,PROTOCOL MILESTONE,3,BASELINE,2013-03-21,2013-03-21,1
CDISCPILOT01,DS,01-704-1233,2,FINAL LAB VISIT,FINAL LAB VISIT,OTHER EVENT,10,WEEK 16,2013-07-11T11:30,2013-07-11,113
CDISCPILOT01,DS,01-704-1233,3,WITHDREW CONSENT,WITHDRAWAL BY SUBJECT,DISPOSITION EVENT,11,WEEK 20,2013-07-14,2013-07-14,116
CDISCPILOT01,DS,01-704-1241,1,RANDOMIZED,RANDOMIZED,PROTOCOL MILESTONE,3,BASELINE,2013-08-25,2013-08-25,1
CDISCPILOT01,DS,01-704-1241,2,ADVERSE EVENT,ADVERSE EVENT,DISPOSITION EVENT,8,WEEK 8,2013-10-31,2013-10-31,68
CDISCPILOT01,DS,01-704-1241,3,FINAL LAB VISIT,FINAL LAB VISIT,OTHER EVENT,8,WEEK 8,2013-10-31T09:15,2013-10-31,68
CDISCPILOT01,DS,01-704-1260,1,RANDOMIZED,RANDOMIZED,PROTOCOL MILESTONE,3,BASELINE,2012-08-30,2012-08-30,1
CDISCPILOT01,DS,01-704-1260,2,FINAL LAB VISIT,FINAL LAB VISIT,OTHER EVENT,8,WEEK 8,2012-10-24T15:45,2012-10-24,56
CDISCPILOT01,DS,01-704-1260,3,TOO MANY VISITS,WITHDRAWAL BY SUBJECT,DISPOSITION EVENT,9,WEEK 12,2013-01-18,2013-01-18,142
CDISCPILOT01,DS,01-704-1266,1,RANDOMIZED,RANDOMIZED,PROTOCOL MILESTONE,3,BASELINE,2013-10-13,2013-10-13,1
CDISCPILOT01,DS,01-704-1266,2,ADVERSE EVENT,ADVERSE EVENT,DISPOSITION EVENT,8,WEEK 8,2013-12-06,2013-12-06,55
CDISCPILOT01,DS,01-704-1266,3,FINAL LAB VISIT,FINAL LAB VISIT,OTHER EVENT,8,WEEK 8,2013-12-06T13:15,2013-12-06,55
CDISCPILOT01,DS,01-704-1323,1,RANDOMIZED,RANDOMIZED,PROTOCOL MILESTONE,3,BASELINE,2013-07-08,2013-07-08,1
CDISCPILOT01,DS,01-704-1323,2,FINAL LAB VISIT,FINAL LAB VISIT,OTHER EVENT,5,WEEK 4,2013-08-04T13:45,2013-08-04,28
CDISCPILOT01,DS,01-704-1323,3,ADVERSE EVENT,ADVERSE EVENT,DISPOSITION EVENT,7,WEEK 6,2013-08-08,2013-08-08,32
CDISCPILOT01,DS,01-704-1325,1,RANDOMIZED,RANDOMIZED,PROTOCOL MILESTONE,3,BASELINE,2014-04-23,2014-04-23,1
CDISCPILOT01,DS,01-704-1325,2,PROTOCOL VIOLATION,PROTOCOL VIOLATION,DISPOSITION EVENT,10,WEEK 16,2014-08-06,2014-08-06,106
CDISCPILOT01,DS,01-704-1325,3,FINAL LAB VISIT,FINAL LAB VISIT,OTHER EVENT,10,WEEK 16,2014-08-06T13:30,2014-08-06,106
CDISCPILOT01,DS,01-704-1332,1,RANDOMIZED,RANDOMIZED,PROTOCOL MILESTONE,3,BASELINE,2013-12-09,2013-12-09,1
CDISCPILOT01,DS,01-704-1332,2,ADVERSE EVENT,ADVERSE EVENT,DISPOSITION EVENT,9,WEEK 12,2014-02-16,2014-02-16,70
CDISCPILOT01,DS,01-704-1332,3,FINAL LAB VISIT,FINAL LAB VISIT,OTHER EVENT,9,WEEK 12,2014-02-16T14:30,2014-02-16,70
CDISCPILOT01,DS,01-704-1351,1,RANDOMIZED,RANDOMIZED,PROTOCOL MILESTONE,3,BASELINE,2013-10-12,2013-10-12,1
CDISCPILOT01,DS,01-704-1351,2,PROTOCOL COMPLETED,COMPLETED,DISPOSITION EVENT,13,WEEK 26,2014-04-18,2014-04-18,189
CDISCPILOT01,DS,01-704-1351,3,FINAL LAB VISIT,FINAL LAB VISIT,OTHER EVENT,13,WEEK 26,2014-04-18T10:30,2014-04-18,189
CDISCPILOT01,DS,01-704-1388,1,RANDOMIZED,RANDOMIZED,PROTOCOL MILESTONE,3,BASELINE,2012-12-07,2012-12-07,1
CDISCPILOT01,DS,01-704-1388,2,PROTOCOL COMPLETED,COMPLETED,DISPOSITION EVENT,13,WEEK 26,2013-06-19,2013-06-19,195
CDISCPILOT01,DS,01-704-1388,3,FINAL LAB VISIT,FINAL LAB VISIT,OTHER EVENT,13,WEEK 26,2013-06-19T12:30,2013-06-19,195
CDISCPILOT01,DS,01-704-1435,1,RANDOMIZED,RANDOMIZED,PROTOCOL MILESTONE,3,BASELINE,2012-11-17,2012-11-17,1
CDISCPILOT01,DS,01-704-1435,2,WITHDREW CONSENT,WITHDRAWAL BY SUBJECT,DISPOSITION EVENT,8,WEEK 8,2013-01-12,2013-01-12,57
CDISCPILOT01,DS,01-704-1435,3,FINAL LAB VISIT,FINAL LAB VISIT,OTHER EVENT,8,WEEK 8,2013-01-12T12:00,2013-01-12,57
CDISCPILOT01,DS,01-704-1445,1,RANDOMIZED,RANDOMIZED,PROTOCOL MILESTONE,3,BASELINE,2014-05-11,2014-05-11,1
CDISCPILOT01,DS,01-704-1445,2,FINAL LAB VISIT,FINAL LAB VISIT,OTHER EVENT,11,WEEK 20,2014-10-01T09:30,2014-10-01,144
CDISCPILOT01,DS,01-704-1445,3,DEATH,DEATH,DISPOSITION EVENT,12,WEEK 24,2014-11-01,2014-11-01,175
CDISCPILOT01,DS,01-705-1011,1,SCREEN FAILURE,SCREEN FAILURE,DISPOSITION EVENT,1,SCREENING 1,2013-09-01,2013-09-01,NA
CDISCPILOT01,DS,01-705-1018,1,FINAL LAB VISIT,FINAL LAB VISIT,OTHER EVENT,1,SCREENING 1,2013-06-30T10:00,2013-06-30,-5
CDISCPILOT01,DS,01-705-1018,2,RANDOMIZED,RANDOMIZED,PROTOCOL MILESTONE,3,BASELINE,2013-07-05,2013-07-05,1
CDISCPILOT01,DS,01-705-1018,3,PATIENT WITHDREW CONSENT,WITHDRAWAL BY SUBJECT,DISPOSITION EVENT,4,WEEK 2,2013-07-12,2013-07-12,8
CDISCPILOT01,DS,01-705-1031,1,RANDOMIZED,RANDOMIZED,PROTOCOL MILESTONE,3,BASELINE,2013-11-27,2013-11-27,1
CDISCPILOT01,DS,01-705-1031,2,UNABLE TO CONTACT PATIENT (LOST TO FOLLOW-UP),LOST TO FOLLOW-UP,DISPOSITION EVENT,12,WEEK 24,2014-05-11,2014-05-11,166
CDISCPILOT01,DS,01-705-1031,3,FINAL LAB VISIT,FINAL LAB VISIT,OTHER EVENT,12,WEEK 24,2014-05-11T09:55,2014-05-11,166
CDISCPILOT01,DS,01-705-1058,1,SCREEN FAILURE,SCREEN FAILURE,DISPOSITION EVENT,1,SCREENING 1,2013-12-02,2013-12-02,NA
CDISCPILOT01,DS,01-705-1059,1,RANDOMIZED,RANDOMIZED,PROTOCOL MILESTONE,3,BASELINE,2013-08-05,2013-08-05,1
CDISCPILOT01,DS,01-705-1059,2,ADVERSE EVENT,ADVERSE EVENT,DISPOSITION EVENT,10,WEEK 16,2013-12-05,2013-12-05,123
CDISCPILOT01,DS,01-705-1059,3,FINAL LAB VISIT,FINAL LAB VISIT,OTHER EVENT,10,WEEK 16,2013-12-05T09:55,2013-12-05,123
CDISCPILOT01,DS,01-705-1059,4,FINAL RETRIEVAL VISIT,FINAL RETRIEVAL VISIT,OTHER EVENT,201,RETRIEVAL,2014-02-06,2014-02-06,186
CDISCPILOT01,DS,01-705-1112,1,SCREEN FAILURE,SCREEN FAILURE,DISPOSITION EVENT,1,SCREENING 1,2014-02-23,2014-02-23,NA
CDISCPILOT01,DS,01-705-1186,1,RANDOMIZED,RANDOMIZED,PROTOCOL MILESTONE,3,BASELINE,2014-01-08,2014-01-08,1
CDISCPILOT01,DS,01-705-1186,2,HYPERBILIRUBINEMIA,PHYSICIAN DECISION,DISPOSITION EVENT,5,WEEK 4,2014-02-07,2014-02-07,31
CDISCPILOT01,DS,01-705-1186,3,FINAL LAB VISIT,FINAL LAB VISIT,OTHER EVENT,5.1,UNSCHEDULED 5.1,2014-02-07T15:20,2014-02-07,31
CDISCPILOT01,DS,01-705-1199,1,RANDOMIZED,RANDOMIZED,PROTOCOL MILESTONE,3,BASELINE,2013-09-16,2013-09-16,1
CDISCPILOT01,DS,01-705-1199,2,ADVERSE EVENT,ADVERSE EVENT,DISPOSITION EVENT,4,WEEK 2,2013-09-29,2013-09-29,14
CDISCPILOT01,DS,01-705-1199,3,FINAL LAB VISIT,FINAL LAB VISIT,OTHER EVENT,4,WEEK 2,2013-09-29T10:30,2013-09-29,14
CDISCPILOT01,DS,01-705-1243,1,SCREEN FAILURE,SCREEN FAILURE,DISPOSITION EVENT,1,SCREENING 1,2013-02-26,2013-02-26,NA
CDISCPILOT01,DS,01-705-1280,1,RANDOMIZED,RANDOMIZED,PROTOCOL MILESTONE,3,BASELINE,2014-01-17,2014-01-17,1
CDISCPILOT01,DS,01-705-1280,2,FINAL LAB VISIT,FINAL LAB VISIT,OTHER EVENT,13,WEEK 26,2014-07-24T15:30,2014-07-24,189
CDISCPILOT01,DS,01-705-1280,3,PROTOCOL COMPLETED,COMPLETED,DISPOSITION EVENT,13,WEEK 26,2014-07-25,2014-07-25,190
CDISCPILOT01,DS,01-705-1281,1,RANDOMIZED,RANDOMIZED,PROTOCOL MILESTONE,3,BASELINE,2013-11-28,2013-11-28,1
CDISCPILOT01,DS,01-705-1281,2,ADVERSE EVENT,ADVERSE EVENT,DISPOSITION EVENT,10,WEEK 16,2014-03-17,2014-03-17,110
CDISCPILOT01,DS,01-705-1281,3,FINAL LAB VISIT,FINAL LAB VISIT,OTHER EVENT,10,WEEK 16,2014-03-17T09:50,2014-03-17,110
CDISCPILOT01,DS,01-705-1282,1,RANDOMIZED,RANDOMIZED,PROTOCOL MILESTONE,3,BASELINE,2012-12-26,2012-12-26,1
CDISCPILOT01,DS,01-705-1282,2,PROTOCOL COMPLETED,COMPLETED,DISPOSITION EVENT,13,WEEK 26,2013-06-24,2013-06-24,181
CDISCPILOT01,DS,01-705-1282,3,FINAL LAB VISIT,FINAL LAB VISIT,OTHER EVENT,13,WEEK 26,2013-06-24T15:25,2013-06-24,181
CDISCPILOT01,DS,01-705-1292,1,RANDOMIZED,RANDOMIZED,PROTOCOL MILESTONE,3,BASELINE,2013-10-14,2013-10-14,1
CDISCPILOT01,DS,01-705-1292,2,PROTOCOL COMPLETED,COMPLETED,DISPOSITION EVENT,13,WEEK 26,2014-05-14,2014-05-14,213
CDISCPILOT01,DS,01-705-1292,3,FINAL LAB VISIT,FINAL LAB VISIT,OTHER EVENT,13,WEEK 26,2014-05-14T13:33,2014-05-14,213
CDISCPILOT01,DS,01-705-1303,1,RANDOMIZED,RANDOMIZED,PROTOCOL MILESTONE,3,BASELINE,2013-12-16,2013-12-16,1
CDISCPILOT01,DS,01-705-1303,2,FINAL LAB VISIT,FINAL LAB VISIT,OTHER EVENT,10,WEEK 16,2014-04-07T14:27,2014-04-07,113
CDISCPILOT01,DS,01-705-1303,3,ADVERSE EVENT,ADVERSE EVENT,DISPOSITION EVENT,11,WEEK 20,2014-06-02,2014-06-02,169
CDISCPILOT01,DS,01-705-1310,1,RANDOMIZED,RANDOMIZED,PROTOCOL MILESTONE,3,BASELINE,2013-11-02,2013-11-02,1
CDISCPILOT01,DS,01-705-1310,2,ADVERSE EVENT,ADVERSE EVENT,DISPOSITION EVENT,9,WEEK 12,2014-01-23,2014-01-23,83
CDISCPILOT01,DS,01-705-1310,3,FINAL LAB VISIT,FINAL LAB VISIT,OTHER EVENT,9,WEEK 12,2014-01-23T09:40,2014-01-23,83
CDISCPILOT01,DS,01-705-1349,1,RANDOMIZED,RANDOMIZED,PROTOCOL MILESTONE,3,BASELINE,2013-03-10,2013-03-10,1
CDISCPILOT01,DS,01-705-1349,2,PROTOCOL COMPLETED,COMPLETED,DISPOSITION EVENT,13,WEEK 26,2013-09-08,2013-09-08,183
CDISCPILOT01,DS,01-705-1349,3,FINAL LAB VISIT,FINAL LAB VISIT,OTHER EVENT,13,WEEK 26,2013-09-08T10:10,2013-09-08,183
CDISCPILOT01,DS,01-705-1377,1,RANDOMIZED,RANDOMIZED,PROTOCOL MILESTONE,3,BASELINE,2014-01-04,2014-01-04,1
CDISCPILOT01,DS,01-705-1377,2,FINAL LAB VISIT,FINAL LAB VISIT,OTHER EVENT,5,WEEK 4,2014-02-07T09:25,2014-02-07,35
CDISCPILOT01,DS,01-705-1377,3,PATIENT WITHDREW CONSENT,WITHDRAWAL BY SUBJECT,DISPOSITION EVENT,7,WEEK 6,2014-03-07,2014-03-07,63
CDISCPILOT01,DS,01-705-1382,1,FINAL LAB VISIT,FINAL LAB VISIT,OTHER EVENT,1,SCREENING 1,2013-05-09T11:15,2013-05-09,-4
CDISCPILOT01,DS,01-705-1382,2,PROTOCOL ENTRY CRITERIA NOT MET,PROTOCOL VIOLATION,DISPOSITION EVENT,4,WEEK 2,2013-05-13,2013-05-13,1
CDISCPILOT01,DS,01-705-1382,3,RANDOMIZED,RANDOMIZED,PROTOCOL MILESTONE,3,BASELINE,2013-05-13,2013-05-13,1
CDISCPILOT01,DS,01-705-1393,1,RANDOMIZED,RANDOMIZED,PROTOCOL MILESTONE,3,BASELINE,2012-09-07,2012-09-07,1
CDISCPILOT01,DS,01-705-1393,2,ADVERSE EVENT,ADVERSE EVENT,DISPOSITION EVENT,11,WEEK 20,2013-02-20,2013-02-20,167
CDISCPILOT01,DS,01-705-1393,3,FINAL LAB VISIT,FINAL LAB VISIT,OTHER EVENT,11,WEEK 20,2013-02-20T16:35,2013-02-20,167
CDISCPILOT01,DS,01-705-1421,1,SCREEN FAILURE,SCREEN FAILURE,DISPOSITION EVENT,1,SCREENING 1,2013-01-14,2013-01-14,NA
CDISCPILOT01,DS,01-705-1431,1,RANDOMIZED,RANDOMIZED,PROTOCOL MILESTONE,3,BASELINE,2013-06-23,2013-06-23,1
CDISCPILOT01,DS,01-705-1431,2,PROTOCOL COMPLETED,COMPLETED,DISPOSITION EVENT,13,WEEK 26,2013-12-19,2013-12-19,180
CDISCPILOT01,DS,01-705-1431,3,FINAL LAB VISIT,FINAL LAB VISIT,OTHER EVENT,13,WEEK 26,2013-12-19T10:05,2013-12-19,180
CDISCPILOT01,DS,01-706-1041,1,RANDOMIZED,RANDOMIZED,PROTOCOL MILESTONE,3,BASELINE,2013-12-31,2013-12-31,1
CDISCPILOT01,DS,01-706-1041,2,PROTOCOL COMPLETED,COMPLETED,DISPOSITION EVENT,13,WEEK 26,2014-07-29,2014-07-29,211
CDISCPILOT01,DS,01-706-1041,3,FINAL LAB VISIT,FINAL LAB VISIT,OTHER EVENT,13,WEEK 26,2014-07-29T13:45,2014-07-29,211
CDISCPILOT01,DS,01-706-1049,1,RANDOMIZED,RANDOMIZED,PROTOCOL MILESTONE,3,BASELINE,2013-05-14,2013-05-14,1
CDISCPILOT01,DS,01-706-1049,2,ADVERSE EVENT,ADVERSE EVENT,DISPOSITION EVENT,7,WEEK 6,2013-06-25,2013-06-25,43
CDISCPILOT01,DS,01-706-1049,3,FINAL LAB VISIT,FINAL LAB VISIT,OTHER EVENT,7,WEEK 6,2013-06-25T11:00,2013-06-25,43
CDISCPILOT01,DS,01-706-1049,4,FINAL RETRIEVAL VISIT,FINAL RETRIEVAL VISIT,OTHER EVENT,201,RETRIEVAL,2013-11-26,2013-11-26,197
CDISCPILOT01,DS,01-706-1384,1,RANDOMIZED,RANDOMIZED,PROTOCOL MILESTONE,3,BASELINE,2012-09-15,2012-09-15,1
CDISCPILOT01,DS,01-706-1384,2,ADVERSE EVENT,ADVERSE EVENT,DISPOSITION EVENT,4,WEEK 2,2012-09-29,2012-09-29,15
CDISCPILOT01,DS,01-706-1384,3,FINAL LAB VISIT,FINAL LAB VISIT,OTHER EVENT,4,WEEK 2,2012-09-29T10:00,2012-09-29,15
CDISCPILOT01,DS,01-706-1384,4,FINAL RETRIEVAL VISIT,FINAL RETRIEVAL VISIT,OTHER EVENT,201,RETRIEVAL,2013-06-22,2013-06-22,281
CDISCPILOT01,DS,01-707-1037,1,RANDOMIZED,RANDOMIZED,PROTOCOL MILESTONE,3,BASELINE,2013-12-20,2013-12-20,1
CDISCPILOT01,DS,01-707-1037,2,WITHDRAWS CONSENT,WITHDRAWAL BY SUBJECT,DISPOSITION EVENT,4,WEEK 2,2014-01-08,2014-01-08,20
CDISCPILOT01,DS,01-707-1037,3,FINAL LAB VISIT,FINAL LAB VISIT,OTHER EVENT,4,WEEK 2,2014-01-08T12:40,2014-01-08,20
CDISCPILOT01,DS,01-707-1206,1,RANDOMIZED,RANDOMIZED,PROTOCOL MILESTONE,3,BASELINE,2013-10-28,2013-10-28,1
CDISCPILOT01,DS,01-707-1206,2,PROTOCOL COMPLETED,COMPLETED,DISPOSITION EVENT,13,WEEK 26,2014-04-27,2014-04-27,182
CDISCPILOT01,DS,01-707-1206,3,FINAL LAB VISIT,FINAL LAB VISIT,OTHER EVENT,13,WEEK 26,2014-04-27T08:00,2014-04-27,182
CDISCPILOT01,DS,01-707-1276,1,SCREEN FAILURE,SCREEN FAILURE,DISPOSITION EVENT,1,SCREENING 1,2012-10-12,2012-10-12,NA
CDISCPILOT01,DS,01-707-1430,1,SCREEN FAILURE,SCREEN FAILURE,DISPOSITION EVENT,1,SCREENING 1,2014-02-14,2014-02-14,NA
CDISCPILOT01,DS,01-707-1434,1,SCREEN FAILURE,SCREEN FAILURE,DISPOSITION EVENT,1,SCREENING 1,2013-07-25,2013-07-25,NA
CDISCPILOT01,DS,01-708-1013,1,SCREEN FAILURE,SCREEN FAILURE,DISPOSITION EVENT,1,SCREENING 1,2012-10-13,2012-10-13,NA
CDISCPILOT01,DS,01-708-1019,1,RANDOMIZED,RANDOMIZED,PROTOCOL MILESTONE,3,BASELINE,2013-12-20,2013-12-20,1
CDISCPILOT01,DS,01-708-1019,2,ADVERSE EVENT,ADVERSE EVENT,DISPOSITION EVENT,4,WEEK 2,2014-01-23,2014-01-23,35
CDISCPILOT01,DS,01-708-1019,3,FINAL LAB VISIT,FINAL LAB VISIT,OTHER EVENT,4,WEEK 2,2014-01-23T10:10,2014-01-23,35
CDISCPILOT01,DS,01-708-1032,1,RANDOMIZED,RANDOMIZED,PROTOCOL MILESTONE,3,BASELINE,2013-02-09,2013-02-09,1
CDISCPILOT01,DS,01-708-1032,2,ADVERSE EVENT,ADVERSE EVENT,DISPOSITION EVENT,5,WEEK 4,2013-03-09,2013-03-09,29
CDISCPILOT01,DS,01-708-1032,3,FINAL LAB VISIT,FINAL LAB VISIT,OTHER EVENT,5,WEEK 4,2013-03-09T10:45,2013-03-09,29
CDISCPILOT01,DS,01-708-1054,1,SCREEN FAILURE,SCREEN FAILURE,DISPOSITION EVENT,1,SCREENING 1,2014-02-14,2014-02-14,NA
CDISCPILOT01,DS,01-708-1067,1,SCREEN FAILURE,SCREEN FAILURE,DISPOSITION EVENT,1,SCREENING 1,2013-02-07,2013-02-07,NA
CDISCPILOT01,DS,01-708-1084,1,RANDOMIZED,RANDOMIZED,PROTOCOL MILESTONE,3,BASELINE,2013-05-09,2013-05-09,1
CDISCPILOT01,DS,01-708-1084,2,PROTOCOL COMPLETED,COMPLETED,DISPOSITION EVENT,13,WEEK 26,2013-11-11,2013-11-11,187
CDISCPILOT01,DS,01-708-1084,3,FINAL LAB VISIT,FINAL LAB VISIT,OTHER EVENT,13,WEEK 26,2013-11-11T10:00,2013-11-11,187
CDISCPILOT01,DS,01-708-1087,1,RANDOMIZED,RANDOMIZED,PROTOCOL MILESTONE,3,BASELINE,2012-10-22,2012-10-22,1
CDISCPILOT01,DS,01-708-1087,2,PROTOCOL COMPLETED,COMPLETED,DISPOSITION EVENT,13,WEEK 26,2013-04-28,2013-04-28,189
CDISCPILOT01,DS,01-708-1087,3,FINAL LAB VISIT,FINAL LAB VISIT,OTHER EVENT,13,WEEK 26,2013-04-28T12:40,2013-04-28,189
CDISCPILOT01,DS,01-708-1104,1,SCREEN FAILURE,SCREEN FAILURE,DISPOSITION EVENT,1,SCREENING 1,2014-01-23,2014-01-23,NA
CDISCPILOT01,DS,01-708-1158,1,RANDOMIZED,RANDOMIZED,PROTOCOL MILESTONE,3,BASELINE,2014-02-08,2014-02-08,1
CDISCPILOT01,DS,01-708-1158,2,ADVERSE EVENT,ADVERSE EVENT,DISPOSITION EVENT,7,WEEK 6,2014-03-22,2014-03-22,43
CDISCPILOT01,DS,01-708-1158,3,FINAL LAB VISIT,FINAL LAB VISIT,OTHER EVENT,7,WEEK 6,2014-03-22T11:15,2014-03-22,43
CDISCPILOT01,DS,01-708-1171,1,RANDOMIZED,RANDOMIZED,PROTOCOL MILESTONE,3,BASELINE,2012-12-06,2012-12-06,1
CDISCPILOT01,DS,01-708-1171,2,FINAL LAB VISIT,FINAL LAB VISIT,OTHER EVENT,13,WEEK 26,2013-06-03T10:40,2013-06-03,180
CDISCPILOT01,DS,01-708-1171,3,PROTOCOL COMPLETED,COMPLETED,DISPOSITION EVENT,13,WEEK 26,2013-06-04,2013-06-04,181
CDISCPILOT01,DS,01-708-1178,1,RANDOMIZED,RANDOMIZED,PROTOCOL MILESTONE,3,BASELINE,2013-12-29,2013-12-29,1
CDISCPILOT01,DS,01-708-1178,2,DR PUT PT ON AN EXCLUDED MEDICATION,PHYSICIAN DECISION,DISPOSITION EVENT,9,WEEK 12,2014-04-06,2014-04-06,99
CDISCPILOT01,DS,01-708-1178,3,FINAL LAB VISIT,FINAL LAB VISIT,OTHER EVENT,9,WEEK 12,2014-04-06T08:50,2014-04-06,99
CDISCPILOT01,DS,01-708-1184,1,SCREEN FAILURE,SCREEN FAILURE,DISPOSITION EVENT,1,SCREENING 1,2013-01-14,2013-01-14,NA
CDISCPILOT01,DS,01-708-1213,1,RANDOMIZED,RANDOMIZED,PROTOCOL MILESTONE,3,BASELINE,2013-02-09,2013-02-09,1
CDISCPILOT01,DS,01-708-1213,2,FINAL LAB VISIT,FINAL LAB VISIT,OTHER EVENT,4,WEEK 2,2013-02-22T11:05,2013-02-22,14
CDISCPILOT01,DS,01-708-1213,3,ADVERSE EVENT,ADVERSE EVENT,DISPOSITION EVENT,5,WEEK 4,2013-02-26,2013-02-26,18
CDISCPILOT01,DS,01-708-1216,1,RANDOMIZED,RANDOMIZED,PROTOCOL MILESTONE,3,BASELINE,2012-10-24,2012-10-24,1
CDISCPILOT01,DS,01-708-1216,2,ADVERSE EVENT,ADVERSE EVENT,DISPOSITION EVENT,7,WEEK 6,2012-12-06,2012-12-06,44
CDISCPILOT01,DS,01-708-1216,3,FINAL LAB VISIT,FINAL LAB VISIT,OTHER EVENT,7,WEEK 6,2012-12-06T11:50,2012-12-06,44
CDISCPILOT01,DS,01-708-1236,1,FINAL LAB VISIT,FINAL LAB VISIT,OTHER EVENT,1.1,UNSCHEDULED 1.1,2013-09-19T10:35,2013-09-19,-2
CDISCPILOT01,DS,01-708-1236,2,RANDOMIZED,RANDOMIZED,PROTOCOL MILESTONE,3,BASELINE,2013-09-21,2013-09-21,1
CDISCPILOT01,DS,01-708-1236,3,PATIENT WITHDREW CONSENT,WITHDRAWAL BY SUBJECT,DISPOSITION EVENT,4,WEEK 2,2013-09-26,2013-09-26,6
CDISCPILOT01,DS,01-708-1242,1,SCREEN FAILURE,SCREEN FAILURE,DISPOSITION EVENT,1,SCREENING 1,2012-08-13,2012-08-13,NA
CDISCPILOT01,DS,01-708-1253,1,RANDOMIZED,RANDOMIZED,PROTOCOL MILESTONE,3,BASELINE,2013-05-07,2013-05-07,1
CDISCPILOT01,DS,01-708-1253,2,FINAL LAB VISIT,FINAL LAB VISIT,OTHER EVENT,13,WEEK 26,2013-11-04T13:40,2013-11-04,182
CDISCPILOT01,DS,01-708-1253,3,PROTOCOL COMPLETED,COMPLETED,DISPOSITION EVENT,13,WEEK 26,2013-11-05,2013-11-05,183
CDISCPILOT01,DS,01-708-1272,1,RANDOMIZED,RANDOMIZED,PROTOCOL MILESTONE,3,BASELINE,2013-02-06,2013-02-06,1
CDISCPILOT01,DS,01-708-1272,2,PATCH DISCOMFORT,WITHDRAWAL BY SUBJECT,DISPOSITION EVENT,8,WEEK 8,2013-04-04,2013-04-04,58
CDISCPILOT01,DS,01-708-1272,3,FINAL LAB VISIT,FINAL LAB VISIT,OTHER EVENT,8,WEEK 8,2013-04-04T11:05,2013-04-04,58
CDISCPILOT01,DS,01-708-1286,1,RANDOMIZED,RANDOMIZED,PROTOCOL MILESTONE,3,BASELINE,2013-09-10,2013-09-10,1
CDISCPILOT01,DS,01-708-1286,2,PROTOCOL COMPLETED,COMPLETED,DISPOSITION EVENT,13,WEEK 26,2014-03-08,2014-03-08,180
CDISCPILOT01,DS,01-708-1286,3,FINAL LAB VISIT,FINAL LAB VISIT,OTHER EVENT,13,WEEK 26,2014-03-08T09:50,2014-03-08,180
CDISCPILOT01,DS,01-708-1296,1,RANDOMIZED,RANDOMIZED,PROTOCOL MILESTONE,3,BASELINE,2013-06-14,2013-06-14,1
CDISCPILOT01,DS,01-708-1296,2,PROTOCOL COMPLETED,COMPLETED,DISPOSITION EVENT,13,WEEK 26,2013-12-12,2013-12-12,182
CDISCPILOT01,DS,01-708-1296,3,FINAL LAB VISIT,FINAL LAB VISIT,OTHER EVENT,13,WEEK 26,2013-12-12T09:30,2013-12-12,182
CDISCPILOT01,DS,01-708-1297,1,RANDOMIZED,RANDOMIZED,PROTOCOL MILESTONE,3,BASELINE,2013-01-25,2013-01-25,1
CDISCPILOT01,DS,01-708-1297,2,ADVERSE EVENT,ADVERSE EVENT,DISPOSITION EVENT,10,WEEK 16,2013-05-08,2013-05-08,104
CDISCPILOT01,DS,01-708-1297,3,FINAL LAB VISIT,FINAL LAB VISIT,OTHER EVENT,10,WEEK 16,2013-05-08T10:30,2013-05-08,104
CDISCPILOT01,DS,01-708-1316,1,RANDOMIZED,RANDOMIZED,PROTOCOL MILESTONE,3,BASELINE,2013-08-23,2013-08-23,1
CDISCPILOT01,DS,01-708-1316,2,PROTOCOL COMPLETED,COMPLETED,DISPOSITION EVENT,13,WEEK 26,2014-03-01,2014-03-01,191
CDISCPILOT01,DS,01-708-1316,3,FINAL LAB VISIT,FINAL LAB VISIT,OTHER EVENT,13,WEEK 26,2014-03-01T10:25,2014-03-01,191
CDISCPILOT01,DS,01-708-1336,1,RANDOMIZED,RANDOMIZED,PROTOCOL MILESTONE,3,BASELINE,2012-12-07,2012-12-07,1
CDISCPILOT01,DS,01-708-1336,2,PROTOCOL COMPLETED,COMPLETED,DISPOSITION EVENT,13,WEEK 26,2013-06-05,2013-06-05,181
CDISCPILOT01,DS,01-708-1336,3,FINAL LAB VISIT,FINAL LAB VISIT,OTHER EVENT,13,WEEK 26,2013-06-05,2013-06-05,181
CDISCPILOT01,DS,01-708-1342,1,RANDOMIZED,RANDOMIZED,PROTOCOL MILESTONE,3,BASELINE,2012-12-29,2012-12-29,1
CDISCPILOT01,DS,01-708-1342,2,PROTOCOL COMPLETED,COMPLETED,DISPOSITION EVENT,13,WEEK 26,2013-06-28,2013-06-28,182
CDISCPILOT01,DS,01-708-1342,3,FINAL LAB VISIT,FINAL LAB VISIT,OTHER EVENT,13,WEEK 26,2013-06-28T09:40,2013-06-28,182
CDISCPILOT01,DS,01-708-1347,1,RANDOMIZED,RANDOMIZED,PROTOCOL MILESTONE,3,BASELINE,2013-04-20,2013-04-20,1
CDISCPILOT01,DS,01-708-1347,2,ADVERSE EVENT,ADVERSE EVENT,DISPOSITION EVENT,9,WEEK 12,2013-06-18,2013-06-18,60
CDISCPILOT01,DS,01-708-1347,3,FINAL LAB VISIT,FINAL LAB VISIT,OTHER EVENT,9,WEEK 12,2013-06-18T09:20,2013-06-18,60
CDISCPILOT01,DS,01-708-1348,1,RANDOMIZED,RANDOMIZED,PROTOCOL MILESTONE,3,BASELINE,2013-08-05,2013-08-05,1
CDISCPILOT01,DS,01-708-1348,2,PROTOCOL COMPLETED,COMPLETED,DISPOSITION EVENT,13,WEEK 26,2014-02-13,2014-02-13,193
CDISCPILOT01,DS,01-708-1348,3,FINAL LAB VISIT,FINAL LAB VISIT,OTHER EVENT,13,WEEK 26,2014-02-13T10:25,2014-02-13,193
CDISCPILOT01,DS,01-708-1352,1,SCREEN FAILURE,SCREEN FAILURE,DISPOSITION EVENT,1,SCREENING 1,2013-09-16,2013-09-16,NA
CDISCPILOT01,DS,01-708-1353,1,RANDOMIZED,RANDOMIZED,PROTOCOL MILESTONE,3,BASELINE,2013-07-04,2013-07-04,1
CDISCPILOT01,DS,01-708-1353,2,ADVERSE EVENT,ADVERSE EVENT,DISPOSITION EVENT,8,WEEK 8,2013-09-10,2013-09-10,69
CDISCPILOT01,DS,01-708-1353,3,FINAL LAB VISIT,FINAL LAB VISIT,OTHER EVENT,8,WEEK 8,2013-09-10T13:15,2013-09-10,69
CDISCPILOT01,DS,01-708-1372,1,FINAL LAB VISIT,FINAL LAB VISIT,OTHER EVENT,1,SCREENING 1,2013-04-03T11:00,2013-04-03,-9
CDISCPILOT01,DS,01-708-1372,2,RANDOMIZED,RANDOMIZED,PROTOCOL MILESTONE,3,BASELINE,2013-04-12,2013-04-12,1
CDISCPILOT01,DS,01-708-1372,3,PROTOCOL ENTRY CRITERIA NOT MET,PROTOCOL VIOLATION,DISPOSITION EVENT,4,WEEK 2,2013-05-10,2013-05-10,29
CDISCPILOT01,DS,01-708-1378,1,RANDOMIZED,RANDOMIZED,PROTOCOL MILESTONE,3,BASELINE,2013-09-03,2013-09-03,1
CDISCPILOT01,DS,01-708-1378,2,SPONSOR DECISION (STUDY OR PATIENT DISCONTINUED BY THE SPONSOR),STUDY TERMINATED BY SPONSOR,DISPOSITION EVENT,11,WEEK 20,2014-01-28,2014-01-28,148
CDISCPILOT01,DS,01-708-1378,3,FINAL LAB VISIT,FINAL LAB VISIT,OTHER EVENT,11,WEEK 20,2014-01-28T13:00,2014-01-28,148
CDISCPILOT01,DS,01-708-1406,1,RANDOMIZED,RANDOMIZED,PROTOCOL MILESTONE,3,BASELINE,2013-12-26,2013-12-26,1
CDISCPILOT01,DS,01-708-1406,2,PROTOCOL COMPLETED,COMPLETED,DISPOSITION EVENT,13,WEEK 26,2014-07-02,2014-07-02,189
CDISCPILOT01,DS,01-708-1406,3,FINAL LAB VISIT,FINAL LAB VISIT,OTHER EVENT,13,WEEK 26,2014-07-02T13:45,2014-07-02,189
CDISCPILOT01,DS,01-708-1428,1,RANDOMIZED,RANDOMIZED,PROTOCOL MILESTONE,3,BASELINE,2013-11-09,2013-11-09,1
CDISCPILOT01,DS,01-708-1428,2,ADVERSE EVENT,ADVERSE EVENT,DISPOSITION EVENT,8,WEEK 8,2014-01-31,2014-01-31,84
CDISCPILOT01,DS,01-708-1428,3,FINAL LAB VISIT,FINAL LAB VISIT,OTHER EVENT,8,WEEK 8,2014-01-31T11:10,2014-01-31,84
CDISCPILOT01,DS,01-709-1001,1,RANDOMIZED,RANDOMIZED,PROTOCOL MILESTONE,3,BASELINE,2013-10-08,2013-10-08,1
CDISCPILOT01,DS,01-709-1001,2,FINAL LAB VISIT,FINAL LAB VISIT,OTHER EVENT,12,WEEK 24,2014-03-17T11:10,2014-03-17,161
CDISCPILOT01,DS,01-709-1001,3,PROTOCOL COMPLETED,COMPLETED,DISPOSITION EVENT,13,WEEK 26,2014-04-08,2014-04-08,183
CDISCPILOT01,DS,01-709-1007,1,RANDOMIZED,RANDOMIZED,PROTOCOL MILESTONE,3,BASELINE,2012-07-31,2012-07-31,1
CDISCPILOT01,DS,01-709-1007,2,ADVERSE EVENT,ADVERSE EVENT,DISPOSITION EVENT,5,WEEK 4,2012-09-01,2012-09-01,33
CDISCPILOT01,DS,01-709-1007,3,FINAL LAB VISIT,FINAL LAB VISIT,OTHER EVENT,5,WEEK 4,2012-09-01T12:30,2012-09-01,33
CDISCPILOT01,DS,01-709-1020,1,RANDOMIZED,RANDOMIZED,PROTOCOL MILESTONE,3,BASELINE,2012-12-01,2012-12-01,1
CDISCPILOT01,DS,01-709-1020,2,PROTOCOL COMPLETED,COMPLETED,DISPOSITION EVENT,13,WEEK 26,2013-06-01,2013-06-01,183
CDISCPILOT01,DS,01-709-1020,3,FINAL LAB VISIT,FINAL LAB VISIT,OTHER EVENT,13,WEEK 26,2013-06-01T10:40,2013-06-01,183
CDISCPILOT01,DS,01-709-1029,1,RANDOMIZED,RANDOMIZED,PROTOCOL MILESTONE,3,BASELINE,2012-12-25,2012-12-25,1
CDISCPILOT01,DS,01-709-1029,2,PROTOCOL COMPLETED,COMPLETED,DISPOSITION EVENT,13,WEEK 26,2013-06-26,2013-06-26,184
CDISCPILOT01,DS,01-709-1029,3,FINAL LAB VISIT,FINAL LAB VISIT,OTHER EVENT,13,WEEK 26,2013-06-26T10:58,2013-06-26,184
CDISCPILOT01,DS,01-709-1081,1,RANDOMIZED,RANDOMIZED,PROTOCOL MILESTONE,3,BASELINE,2014-01-18,2014-01-18,1
CDISCPILOT01,DS,01-709-1081,2,ADVERSE EVENT,ADVERSE EVENT,DISPOSITION EVENT,10,WEEK 16,2014-05-10,2014-05-10,113
CDISCPILOT01,DS,01-709-1081,3,FINAL LAB VISIT,FINAL LAB VISIT,OTHER EVENT,10,WEEK 16,2014-05-10T11:15,2014-05-10,113
CDISCPILOT01,DS,01-709-1088,1,RANDOMIZED,RANDOMIZED,PROTOCOL MILESTONE,3,BASELINE,2014-04-12,2014-04-12,1
CDISCPILOT01,DS,01-709-1088,2,PROTOCOL COMPLETED,COMPLETED,DISPOSITION EVENT,13,WEEK 26,2014-10-09,2014-10-09,181
CDISCPILOT01,DS,01-709-1088,3,FINAL LAB VISIT,FINAL LAB VISIT,OTHER EVENT,13,WEEK 26,2014-10-09T13:25,2014-10-09,181
CDISCPILOT01,DS,01-709-1099,1,RANDOMIZED,RANDOMIZED,PROTOCOL MILESTONE,3,BASELINE,2013-10-25,2013-10-25,1
CDISCPILOT01,DS,01-709-1099,2,PROTOCOL COMPLETED,COMPLETED,DISPOSITION EVENT,13,WEEK 26,2014-04-25,2014-04-25,183
CDISCPILOT01,DS,01-709-1099,3,FINAL LAB VISIT,FINAL LAB VISIT,OTHER EVENT,13,WEEK 26,2014-04-25T09:10,2014-04-25,183
CDISCPILOT01,DS,01-709-1102,1,RANDOMIZED,RANDOMIZED,PROTOCOL MILESTONE,3,BASELINE,2013-01-15,2013-01-15,1
CDISCPILOT01,DS,01-709-1102,2,ADVERSE EVENT,ADVERSE EVENT,DISPOSITION EVENT,9,WEEK 12,2013-03-31,2013-03-31,76
CDISCPILOT01,DS,01-709-1102,3,FINAL LAB VISIT,FINAL LAB VISIT,OTHER EVENT,9,WEEK 12,2013-03-31T12:15,2013-03-31,76
CDISCPILOT01,DS,01-709-1168,1,RANDOMIZED,RANDOMIZED,PROTOCOL MILESTONE,3,BASELINE,2013-08-02,2013-08-02,1
CDISCPILOT01,DS,01-709-1168,2,ADVERSE EVENT,ADVERSE EVENT,DISPOSITION EVENT,8,WEEK 8,2013-09-27,2013-09-27,57
CDISCPILOT01,DS,01-709-1168,3,FINAL LAB VISIT,FINAL LAB VISIT,OTHER EVENT,8,WEEK 8,2013-09-27T10:05,2013-09-27,57
CDISCPILOT01,DS,01-709-1217,1,RANDOMIZED,RANDOMIZED,PROTOCOL MILESTONE,3,BASELINE,2013-03-04,2013-03-04,1
CDISCPILOT01,DS,01-709-1217,2,ADVERSE EVENT,ADVERSE EVENT,DISPOSITION EVENT,10,WEEK 16,2013-06-25,2013-06-25,114
CDISCPILOT01,DS,01-709-1217,3,FINAL LAB VISIT,FINAL LAB VISIT,OTHER EVENT,10,WEEK 16,2013-06-25T10:35,2013-06-25,114
CDISCPILOT01,DS,01-709-1224,1,SCREEN FAILURE,SCREEN FAILURE,DISPOSITION EVENT,1,SCREENING 1,2013-11-18,2013-11-18,NA
CDISCPILOT01,DS,01-709-1237,1,SCREEN FAILURE,SCREEN FAILURE,DISPOSITION EVENT,1,SCREENING 1,2014-01-17,2014-01-17,NA
CDISCPILOT01,DS,01-709-1238,1,RANDOMIZED,RANDOMIZED,PROTOCOL MILESTONE,3,BASELINE,2013-05-15,2013-05-15,1
CDISCPILOT01,DS,01-709-1238,2,ADVERSE EVENT,ADVERSE EVENT,DISPOSITION EVENT,9,WEEK 12,2013-08-07,2013-08-07,85
CDISCPILOT01,DS,01-709-1238,3,FINAL LAB VISIT,FINAL LAB VISIT,OTHER EVENT,9,WEEK 12,2013-08-07T13:20,2013-08-07,85
CDISCPILOT01,DS,01-709-1259,1,RANDOMIZED,RANDOMIZED,PROTOCOL MILESTONE,3,BASELINE,2013-01-26,2013-01-26,1
CDISCPILOT01,DS,01-709-1259,2,"LACK OF EFFICACY, PATIENT CAREGIVER PERCEPTION",LACK OF EFFICACY,DISPOSITION EVENT,11,WEEK 20,2013-06-13,2013-06-13,139
CDISCPILOT01,DS,01-709-1259,3,FINAL LAB VISIT,FINAL LAB VISIT,OTHER EVENT,11,WEEK 20,2013-06-13T12:23,2013-06-13,139
CDISCPILOT01,DS,01-709-1285,1,RANDOMIZED,RANDOMIZED,PROTOCOL MILESTONE,3,BASELINE,2013-03-24,2013-03-24,1
CDISCPILOT01,DS,01-709-1285,2,SPONSOR DECISION (STUDY OR PATIENT DISCONTINUED BY THE SPONSOR),STUDY TERMINATED BY SPONSOR,DISPOSITION EVENT,9,WEEK 12,2013-05-31,2013-05-31,69
CDISCPILOT01,DS,01-709-1285,3,FINAL LAB VISIT,FINAL LAB VISIT,OTHER EVENT,9,WEEK 12,2013-05-31T13:15,2013-05-31,69
CDISCPILOT01,DS,01-709-1301,1,RANDOMIZED,RANDOMIZED,PROTOCOL MILESTONE,3,BASELINE,2013-07-19,2013-07-19,1
CDISCPILOT01,DS,01-709-1301,2,PROTOCOL COMPLETED,COMPLETED,DISPOSITION EVENT,13,WEEK 26,2014-01-17,2014-01-17,183
CDISCPILOT01,DS,01-709-1301,3,FINAL LAB VISIT,FINAL LAB VISIT,OTHER EVENT,13,WEEK 26,2014-01-17T10:07,2014-01-17,183
CDISCPILOT01,DS,01-709-1306,1,RANDOMIZED,RANDOMIZED,PROTOCOL MILESTONE,3,BASELINE,2014-02-03,2014-02-03,1
CDISCPILOT01,DS,01-709-1306,2,ADVERSE EVENT,ADVERSE EVENT,DISPOSITION EVENT,11,WEEK 20,2014-06-25,2014-06-25,143
CDISCPILOT01,DS,01-709-1306,3,FINAL LAB VISIT,FINAL LAB VISIT,OTHER EVENT,11,WEEK 20,2014-06-25T10:45,2014-06-25,143
CDISCPILOT01,DS,01-709-1309,1,RANDOMIZED,RANDOMIZED,PROTOCOL MILESTONE,3,BASELINE,2013-06-19,2013-06-19,1
CDISCPILOT01,DS,01-709-1309,2,PROTOCOL COMPLETED,COMPLETED,DISPOSITION EVENT,13,WEEK 26,2013-12-19,2013-12-19,184
CDISCPILOT01,DS,01-709-1309,3,FINAL LAB VISIT,FINAL LAB VISIT,OTHER EVENT,13,WEEK 26,2013-12-19T10:35,2013-12-19,184
CDISCPILOT01,DS,01-709-1312,1,RANDOMIZED,RANDOMIZED,PROTOCOL MILESTONE,3,BASELINE,2014-04-20,2014-04-20,1
CDISCPILOT01,DS,01-709-1312,2,PROTOCOL COMPLETED,COMPLETED,DISPOSITION EVENT,13,WEEK 26,2014-10-19,2014-10-19,183
CDISCPILOT01,DS,01-709-1312,3,FINAL LAB VISIT,FINAL LAB VISIT,OTHER EVENT,13,WEEK 26,2014-10-19T10:00,2014-10-19,183
CDISCPILOT01,DS,01-709-1326,1,RANDOMIZED,RANDOMIZED,PROTOCOL MILESTONE,3,BASELINE,2013-04-05,2013-04-05,1
CDISCPILOT01,DS,01-709-1326,2,PROTOCOL COMPLETED,COMPLETED,DISPOSITION EVENT,13,WEEK 26,2013-10-02,2013-10-02,181
CDISCPILOT01,DS,01-709-1326,3,FINAL LAB VISIT,FINAL LAB VISIT,OTHER EVENT,13,WEEK 26,2013-10-02T09:40,2013-10-02,181
CDISCPILOT01,DS,01-709-1329,1,RANDOMIZED,RANDOMIZED,PROTOCOL MILESTONE,3,BASELINE,2013-08-15,2013-08-15,1
CDISCPILOT01,DS,01-709-1329,2,CAREGIVER BURDEN,WITHDRAWAL BY SUBJECT,DISPOSITION EVENT,4,WEEK 2,2013-08-29,2013-08-29,15
CDISCPILOT01,DS,01-709-1329,3,FINAL LAB VISIT,FINAL LAB VISIT,OTHER EVENT,4,WEEK 2,2013-08-29T10:35,2013-08-29,15
CDISCPILOT01,DS,01-709-1339,1,RANDOMIZED,RANDOMIZED,PROTOCOL MILESTONE,3,BASELINE,2012-12-23,2012-12-23,1
CDISCPILOT01,DS,01-709-1339,2,PROTOCOL COMPLETED,COMPLETED,DISPOSITION EVENT,13,WEEK 26,2013-06-24,2013-06-24,184
CDISCPILOT01,DS,01-709-1339,3,FINAL LAB VISIT,FINAL LAB VISIT,OTHER EVENT,13,WEEK 26,2013-06-24T10:10,2013-06-24,184
CDISCPILOT01,DS,01-709-1424,1,RANDOMIZED,RANDOMIZED,PROTOCOL MILESTONE,3,BASELINE,2013-03-03,2013-03-03,1
CDISCPILOT01,DS,01-709-1424,2,ADVERSE EVENT,ADVERSE EVENT,DISPOSITION EVENT,4,WEEK 2,2013-03-08,2013-03-08,6
CDISCPILOT01,DS,01-709-1424,3,FINAL LAB VISIT,FINAL LAB VISIT,OTHER EVENT,4.1,UNSCHEDULED 4.1,2013-03-17,2013-03-17,15
CDISCPILOT01,DS,01-710-1002,1,RANDOMIZED,RANDOMIZED,PROTOCOL MILESTONE,3,BASELINE,2014-01-14,2014-01-14,1
CDISCPILOT01,DS,01-710-1002,2,ADVERSE EVENT,ADVERSE EVENT,DISPOSITION EVENT,4,WEEK 2,2014-01-18,2014-01-18,5
CDISCPILOT01,DS,01-710-1002,3,FINAL LAB VISIT,FINAL LAB VISIT,OTHER EVENT,4,WEEK 2,2014-01-18T15:00,2014-01-18,5
CDISCPILOT01,DS,01-710-1006,1,RANDOMIZED,RANDOMIZED,PROTOCOL MILESTONE,3,BASELINE,2013-02-10,2013-02-10,1
CDISCPILOT01,DS,01-710-1006,2,PROTOCOL COMPLETED,COMPLETED,DISPOSITION EVENT,13,WEEK 26,2013-08-10,2013-08-10,182
CDISCPILOT01,DS,01-710-1006,3,FINAL LAB VISIT,FINAL LAB VISIT,OTHER EVENT,13,WEEK 26,2013-08-10T10:10,2013-08-10,182
CDISCPILOT01,DS,01-710-1021,1,RANDOMIZED,RANDOMIZED,PROTOCOL MILESTONE,3,BASELINE,2013-09-27,2013-09-27,1
CDISCPILOT01,DS,01-710-1021,2,ADVERSE EVENT,ADVERSE EVENT,DISPOSITION EVENT,7,WEEK 6,2013-11-12,2013-11-12,47
CDISCPILOT01,DS,01-710-1021,3,FINAL LAB VISIT,FINAL LAB VISIT,OTHER EVENT,7,WEEK 6,2013-11-12T16:35,2013-11-12,47
CDISCPILOT01,DS,01-710-1027,1,RANDOMIZED,RANDOMIZED,PROTOCOL MILESTONE,3,BASELINE,2014-02-28,2014-02-28,1
CDISCPILOT01,DS,01-710-1027,2,PROTOCOL COMPLETED,COMPLETED,DISPOSITION EVENT,13,WEEK 26,2014-08-29,2014-08-29,183
CDISCPILOT01,DS,01-710-1027,3,FINAL LAB VISIT,FINAL LAB VISIT,OTHER EVENT,13,WEEK 26,2014-08-29T11:05,2014-08-29,183
CDISCPILOT01,DS,01-710-1045,1,RANDOMIZED,RANDOMIZED,PROTOCOL MILESTONE,3,BASELINE,2013-06-03,2013-06-03,1
CDISCPILOT01,DS,01-710-1045,2,ADVERSE EVENT,ADVERSE EVENT,DISPOSITION EVENT,9,WEEK 12,2013-08-17,2013-08-17,76
CDISCPILOT01,DS,01-710-1045,3,FINAL LAB VISIT,FINAL LAB VISIT,OTHER EVENT,9,WEEK 12,2013-08-17T12:30,2013-08-17,76
CDISCPILOT01,DS,01-710-1053,1,RANDOMIZED,RANDOMIZED,PROTOCOL MILESTONE,3,BASELINE,2012-12-26,2012-12-26,1
CDISCPILOT01,DS,01-710-1053,2,ADVERSE EVENT,ADVERSE EVENT,DISPOSITION EVENT,8,WEEK 8,2013-02-15,2013-02-15,52
CDISCPILOT01,DS,01-710-1053,3,FINAL LAB VISIT,FINAL LAB VISIT,OTHER EVENT,8.2,UNSCHEDULED 8.2,2013-02-26T13:25,2013-02-26,63
CDISCPILOT01,DS,01-710-1060,1,RANDOMIZED,RANDOMIZED,PROTOCOL MILESTONE,3,BASELINE,2013-01-01,2013-01-01,1
CDISCPILOT01,DS,01-710-1060,2,PROTOCOL COMPLETED,COMPLETED,DISPOSITION EVENT,13,WEEK 26,2013-07-05,2013-07-05,186
CDISCPILOT01,DS,01-710-1060,3,FINAL LAB VISIT,FINAL LAB VISIT,OTHER EVENT,13,WEEK 26,2013-07-05T14:40,2013-07-05,186
CDISCPILOT01,DS,01-710-1070,1,RANDOMIZED,RANDOMIZED,PROTOCOL MILESTONE,3,BASELINE,2012-09-08,2012-09-08,1
CDISCPILOT01,DS,01-710-1070,2,FINAL LAB VISIT,FINAL LAB VISIT,OTHER EVENT,10,WEEK 16,2012-12-28T11:55,2012-12-28,112
CDISCPILOT01,DS,01-710-1070,3,ADVERSE EVENT,ADVERSE EVENT,DISPOSITION EVENT,11,WEEK 20,2013-02-23,2013-02-23,169
CDISCPILOT01,DS,01-710-1077,1,RANDOMIZED,RANDOMIZED,PROTOCOL MILESTONE,3,BASELINE,2013-11-17,2013-11-17,1
CDISCPILOT01,DS,01-710-1077,2,PROTOCOL COMPLETED,COMPLETED,DISPOSITION EVENT,13,WEEK 26,2014-05-18,2014-05-18,183
CDISCPILOT01,DS,01-710-1077,3,FINAL LAB VISIT,FINAL LAB VISIT,OTHER EVENT,13,WEEK 26,2014-05-18T09:50,2014-05-18,183
CDISCPILOT01,DS,01-710-1078,1,RANDOMIZED,RANDOMIZED,PROTOCOL MILESTONE,3,BASELINE,2013-09-17,2013-09-17,1
CDISCPILOT01,DS,01-710-1078,2,PROTOCOL COMPLETED,COMPLETED,DISPOSITION EVENT,13,WEEK 26,2014-03-23,2014-03-23,188
CDISCPILOT01,DS,01-710-1078,3,FINAL LAB VISIT,FINAL LAB VISIT,OTHER EVENT,13,WEEK 26,2014-03-23T16:00,2014-03-23,188
CDISCPILOT01,DS,01-710-1083,1,FINAL LAB VISIT,FINAL LAB VISIT,OTHER EVENT,1,SCREENING 1,2013-07-09T16:35,2013-07-09,-13
CDISCPILOT01,DS,01-710-1083,2,RANDOMIZED,RANDOMIZED,PROTOCOL MILESTONE,3,BASELINE,2013-07-22,2013-07-22,1
CDISCPILOT01,DS,01-710-1083,3,DEATH,DEATH,DISPOSITION EVENT,4,WEEK 2,2013-08-03,2013-08-02,12
CDISCPILOT01,DS,01-710-1129,1,SCREEN FAILURE,SCREEN FAILURE,DISPOSITION EVENT,1,SCREENING 1,2013-03-05,2013-03-05,NA
CDISCPILOT01,DS,01-710-1137,1,RANDOMIZED,RANDOMIZED,PROTOCOL MILESTONE,3,BASELINE,2013-10-11,2013-10-11,1
CDISCPILOT01,DS,01-710-1137,2,ADVERSE EVENT,ADVERSE EVENT,DISPOSITION EVENT,7,WEEK 6,2013-11-13,2013-11-13,34
CDISCPILOT01,DS,01-710-1137,3,FINAL LAB VISIT,FINAL LAB VISIT,OTHER EVENT,7,WEEK 6,2013-11-13T11:30,2013-11-13,34
CDISCPILOT01,DS,01-710-1142,1,RANDOMIZED,RANDOMIZED,PROTOCOL MILESTONE,3,BASELINE,2012-10-02,2012-10-02,1
CDISCPILOT01,DS,01-710-1142,2,ADVERSE EVENT,ADVERSE EVENT,DISPOSITION EVENT,5,WEEK 4,2012-10-23,2012-10-23,22
CDISCPILOT01,DS,01-710-1142,3,FINAL LAB VISIT,FINAL LAB VISIT,OTHER EVENT,5,WEEK 4,2012-10-23T15:20,2012-10-23,22
CDISCPILOT01,DS,01-710-1149,1,SCREEN FAILURE,SCREEN FAILURE,DISPOSITION EVENT,1,SCREENING 1,2013-11-16,2013-11-16,NA
CDISCPILOT01,DS,01-710-1154,1,RANDOMIZED,RANDOMIZED,PROTOCOL MILESTONE,3,BASELINE,2014-03-29,2014-03-29,1
CDISCPILOT01,DS,01-710-1154,2,ADVERSE EVENT,ADVERSE EVENT,DISPOSITION EVENT,7,WEEK 6,2014-05-09,2014-05-09,42
CDISCPILOT01,DS,01-710-1154,3,FINAL LAB VISIT,FINAL LAB VISIT,OTHER EVENT,7,WEEK 6,2014-05-09T10:55,2014-05-09,42
CDISCPILOT01,DS,01-710-1166,1,RANDOMIZED,RANDOMIZED,PROTOCOL MILESTONE,3,BASELINE,2012-11-30,2012-11-30,1
CDISCPILOT01,DS,01-710-1166,2,ADVERSE EVENT,ADVERSE EVENT,DISPOSITION EVENT,10,WEEK 16,2013-03-30,2013-03-30,121
CDISCPILOT01,DS,01-710-1166,3,FINAL LAB VISIT,FINAL LAB VISIT,OTHER EVENT,10,WEEK 16,2013-03-30T09:35,2013-03-30,121
CDISCPILOT01,DS,01-710-1183,1,RANDOMIZED,RANDOMIZED,PROTOCOL MILESTONE,3,BASELINE,2013-11-16,2013-11-16,1
CDISCPILOT01,DS,01-710-1183,2,PROTOCOL COMPLETED,COMPLETED,DISPOSITION EVENT,13,WEEK 26,2014-05-17,2014-05-17,183
CDISCPILOT01,DS,01-710-1183,3,FINAL LAB VISIT,FINAL LAB VISIT,OTHER EVENT,13,WEEK 26,2014-05-17T11:55,2014-05-17,183
CDISCPILOT01,DS,01-710-1187,1,RANDOMIZED,RANDOMIZED,PROTOCOL MILESTONE,3,BASELINE,2012-11-10,2012-11-10,1
CDISCPILOT01,DS,01-710-1187,2,PROTOCOL COMPLETED,COMPLETED,DISPOSITION EVENT,13,WEEK 26,2013-05-12,2013-05-12,184
CDISCPILOT01,DS,01-710-1187,3,FINAL LAB VISIT,FINAL LAB VISIT,OTHER EVENT,13,WEEK 26,2013-05-12T11:05,2013-05-12,184
CDISCPILOT01,DS,01-710-1235,1,RANDOMIZED,RANDOMIZED,PROTOCOL MILESTONE,3,BASELINE,2012-09-26,2012-09-26,1
CDISCPILOT01,DS,01-710-1235,2,PROTOCOL COMPLETED,COMPLETED,DISPOSITION EVENT,13,WEEK 26,2013-03-27,2013-03-27,183
CDISCPILOT01,DS,01-710-1235,3,FINAL LAB VISIT,FINAL LAB VISIT,OTHER EVENT,13,WEEK 26,2013-03-27T09:35,2013-03-27,183
CDISCPILOT01,DS,01-710-1249,1,RANDOMIZED,RANDOMIZED,PROTOCOL MILESTONE,3,BASELINE,2013-12-28,2013-12-28,1
CDISCPILOT01,DS,01-710-1249,2,PROTOCOL COMPLETED,COMPLETED,DISPOSITION EVENT,13,WEEK 26,2014-06-28,2014-06-28,183
CDISCPILOT01,DS,01-710-1249,3,FINAL LAB VISIT,FINAL LAB VISIT,OTHER EVENT,13,WEEK 26,2014-06-28T11:05,2014-06-28,183
CDISCPILOT01,DS,01-710-1257,1,SCREEN FAILURE,SCREEN FAILURE,DISPOSITION EVENT,1,SCREENING 1,2013-11-29,2013-11-29,NA
CDISCPILOT01,DS,01-710-1264,1,RANDOMIZED,RANDOMIZED,PROTOCOL MILESTONE,3,BASELINE,2013-06-13,2013-06-13,1
CDISCPILOT01,DS,01-710-1264,2,ADVERSE EVENT,ADVERSE EVENT,DISPOSITION EVENT,11,WEEK 20,2013-10-12,2013-10-12,122
CDISCPILOT01,DS,01-710-1264,3,FINAL LAB VISIT,FINAL LAB VISIT,OTHER EVENT,11,WEEK 20,2013-10-12T12:18,2013-10-12,122
CDISCPILOT01,DS,01-710-1270,1,RANDOMIZED,RANDOMIZED,PROTOCOL MILESTONE,3,BASELINE,2014-02-12,2014-02-12,1
CDISCPILOT01,DS,01-710-1270,2,ADVERSE EVENT,ADVERSE EVENT,DISPOSITION EVENT,4,WEEK 2,2014-03-01,2014-03-01,18
CDISCPILOT01,DS,01-710-1270,3,FINAL LAB VISIT,FINAL LAB VISIT,OTHER EVENT,4,WEEK 2,2014-03-01T12:05,2014-03-01,18
CDISCPILOT01,DS,01-710-1271,1,RANDOMIZED,RANDOMIZED,PROTOCOL MILESTONE,3,BASELINE,2012-09-27,2012-09-27,1
CDISCPILOT01,DS,01-710-1271,2,FINAL LAB VISIT,FINAL LAB VISIT,OTHER EVENT,7,WEEK 6,2012-11-08T16:30,2012-11-08,43
CDISCPILOT01,DS,01-710-1271,3,ADVERSE EVENT,ADVERSE EVENT,DISPOSITION EVENT,8,WEEK 8,2012-12-02,2012-12-02,67
CDISCPILOT01,DS,01-710-1278,1,RANDOMIZED,RANDOMIZED,PROTOCOL MILESTONE,3,BASELINE,2012-12-24,2012-12-24,1
CDISCPILOT01,DS,01-710-1278,2,ADVERSE EVENT,ADVERSE EVENT,DISPOSITION EVENT,9,WEEK 12,2013-03-03,2013-03-03,70
CDISCPILOT01,DS,01-710-1278,3,FINAL LAB VISIT,FINAL LAB VISIT,OTHER EVENT,9,WEEK 12,2013-03-07T11:45,2013-03-07,74
CDISCPILOT01,DS,01-710-1300,1,RANDOMIZED,RANDOMIZED,PROTOCOL MILESTONE,3,BASELINE,2012-12-15,2012-12-15,1
CDISCPILOT01,DS,01-710-1300,2,ADVERSE EVENT,ADVERSE EVENT,DISPOSITION EVENT,9,WEEK 12,2013-02-19,2013-02-19,67
CDISCPILOT01,DS,01-710-1300,3,FINAL LAB VISIT,FINAL LAB VISIT,OTHER EVENT,9,WEEK 12,2013-02-19T15:50,2013-02-19,67
CDISCPILOT01,DS,01-710-1314,1,RANDOMIZED,RANDOMIZED,PROTOCOL MILESTONE,3,BASELINE,2013-04-24,2013-04-24,1
CDISCPILOT01,DS,01-710-1314,2,FINAL LAB VISIT,FINAL LAB VISIT,OTHER EVENT,5,WEEK 4,2013-05-23T14:45,2013-05-23,30
CDISCPILOT01,DS,01-710-1314,3,PATIENT REFUSES TO CONTINUE,WITHDRAWAL BY SUBJECT,DISPOSITION EVENT,6,AMBUL ECG REMOVAL,2013-05-25,2013-05-25,32
CDISCPILOT01,DS,01-710-1315,1,RANDOMIZED,RANDOMIZED,PROTOCOL MILESTONE,3,BASELINE,2013-02-27,2013-02-27,1
CDISCPILOT01,DS,01-710-1315,2,ADVERSE EVENT,ADVERSE EVENT,DISPOSITION EVENT,11,WEEK 20,2013-07-16,2013-07-16,140
CDISCPILOT01,DS,01-710-1315,3,FINAL LAB VISIT,FINAL LAB VISIT,OTHER EVENT,11,WEEK 20,2013-07-16T12:05,2013-07-16,140
CDISCPILOT01,DS,01-710-1337,1,SCREEN FAILURE,SCREEN FAILURE,DISPOSITION EVENT,1,SCREENING 1,2013-12-30,2013-12-30,NA
CDISCPILOT01,DS,01-710-1354,1,RANDOMIZED,RANDOMIZED,PROTOCOL MILESTONE,3,BASELINE,2012-11-11,2012-11-11,1
CDISCPILOT01,DS,01-710-1354,2,PROTOCOL COMPLETED,COMPLETED,DISPOSITION EVENT,13,WEEK 26,2013-05-01,2013-05-01,172
CDISCPILOT01,DS,01-710-1354,3,FINAL LAB VISIT,FINAL LAB VISIT,OTHER EVENT,13,WEEK 26,2013-05-01T14:05,2013-05-01,172
CDISCPILOT01,DS,01-710-1358,1,RANDOMIZED,RANDOMIZED,PROTOCOL MILESTONE,3,BASELINE,2012-09-17,2012-09-17,1
CDISCPILOT01,DS,01-710-1358,2,FINAL LAB VISIT,FINAL LAB VISIT,OTHER EVENT,11,WEEK 20,2013-02-06T11:25,2013-02-06,143
CDISCPILOT01,DS,01-710-1358,3,CAREGIVER WAS HOSPITALIZED;SEE COMMENTS,WITHDRAWAL BY SUBJECT,DISPOSITION EVENT,12,WEEK 24,2013-03-12,2013-03-12,177
CDISCPILOT01,DS,01-710-1368,1,RANDOMIZED,RANDOMIZED,PROTOCOL MILESTONE,3,BASELINE,2013-10-23,2013-10-23,1
CDISCPILOT01,DS,01-710-1368,2,PROTOCOL COMPLETED,COMPLETED,DISPOSITION EVENT,13,WEEK 26,2014-04-24,2014-04-24,184
CDISCPILOT01,DS,01-710-1368,3,FINAL LAB VISIT,FINAL LAB VISIT,OTHER EVENT,13,WEEK 26,2014-04-24T10:10,2014-04-24,184
CDISCPILOT01,DS,01-710-1376,1,SCREEN FAILURE,SCREEN FAILURE,DISPOSITION EVENT,1,SCREENING 1,2014-04-21,2014-04-21,NA
CDISCPILOT01,DS,01-710-1380,1,SCREEN FAILURE,SCREEN FAILURE,DISPOSITION EVENT,1,SCREENING 1,2013-06-02,2013-06-02,NA
CDISCPILOT01,DS,01-710-1385,1,RANDOMIZED,RANDOMIZED,PROTOCOL MILESTONE,3,BASELINE,2012-10-29,2012-10-29,1
CDISCPILOT01,DS,01-710-1385,2,ADVERSE EVENT,ADVERSE EVENT,DISPOSITION EVENT,10,WEEK 16,2013-02-18,2013-02-18,113
CDISCPILOT01,DS,01-710-1385,3,FINAL LAB VISIT,FINAL LAB VISIT,OTHER EVENT,10,WEEK 16,2013-02-18T13:40,2013-02-18,113
CDISCPILOT01,DS,01-710-1408,1,RANDOMIZED,RANDOMIZED,PROTOCOL MILESTONE,3,BASELINE,2013-01-05,2013-01-05,1
CDISCPILOT01,DS,01-710-1408,2,PROTOCOL COMPLETED,COMPLETED,DISPOSITION EVENT,13,WEEK 26,2013-07-12,2013-07-12,189
CDISCPILOT01,DS,01-710-1408,3,FINAL LAB VISIT,FINAL LAB VISIT,OTHER EVENT,13,WEEK 26,2013-07-12T14:35,2013-07-12,189
CDISCPILOT01,DS,01-710-1443,1,SCREEN FAILURE,SCREEN FAILURE,DISPOSITION EVENT,1,SCREENING 1,2013-12-13,2013-12-13,NA
CDISCPILOT01,DS,01-711-1012,1,RANDOMIZED,RANDOMIZED,PROTOCOL MILESTONE,3,BASELINE,2013-04-03,2013-04-03,1
CDISCPILOT01,DS,01-711-1012,2,ADVERSE EVENT,ADVERSE EVENT,DISPOSITION EVENT,5,WEEK 4,2013-05-02,2013-05-02,30
CDISCPILOT01,DS,01-711-1012,3,FINAL LAB VISIT,FINAL LAB VISIT,OTHER EVENT,5,WEEK 4,2013-05-02T09:40,2013-05-02,30
CDISCPILOT01,DS,01-711-1012,4,FINAL RETRIEVAL VISIT,FINAL RETRIEVAL VISIT,OTHER EVENT,201,RETRIEVAL,2013-09-18,2013-09-18,169
CDISCPILOT01,DS,01-711-1022,1,SCREEN FAILURE,SCREEN FAILURE,DISPOSITION EVENT,1,SCREENING 1,2014-03-17,2014-03-17,NA
CDISCPILOT01,DS,01-711-1036,1,RANDOMIZED,RANDOMIZED,PROTOCOL MILESTONE,3,BASELINE,2012-07-29,2012-07-29,1
CDISCPILOT01,DS,01-711-1036,2,PROTOCOL COMPLETED,COMPLETED,DISPOSITION EVENT,13,WEEK 26,2013-02-10,2013-02-10,197
CDISCPILOT01,DS,01-711-1036,3,FINAL LAB VISIT,FINAL LAB VISIT,OTHER EVENT,13,WEEK 26,2013-02-10T10:25,2013-02-10,197
CDISCPILOT01,DS,01-711-1143,1,RANDOMIZED,RANDOMIZED,PROTOCOL MILESTONE,3,BASELINE,2013-04-03,2013-04-03,1
CDISCPILOT01,DS,01-711-1143,2,ADVERSE EVENT,ADVERSE EVENT,DISPOSITION EVENT,9,WEEK 12,2013-06-01,2013-06-01,60
CDISCPILOT01,DS,01-711-1143,3,FINAL LAB VISIT,FINAL LAB VISIT,OTHER EVENT,9,WEEK 12,2013-06-01T13:11,2013-06-01,60
CDISCPILOT01,DS,01-711-1143,4,FINAL RETRIEVAL VISIT,FINAL RETRIEVAL VISIT,OTHER EVENT,201,RETRIEVAL,2013-09-22,2013-09-22,173
CDISCPILOT01,DS,01-711-1163,1,SCREEN FAILURE,SCREEN FAILURE,DISPOSITION EVENT,1,SCREENING 1,2012-11-08,2012-11-08,NA
CDISCPILOT01,DS,01-711-1173,1,SCREEN FAILURE,SCREEN FAILURE,DISPOSITION EVENT,1,SCREENING 1,2012-10-04,2012-10-04,NA
CDISCPILOT01,DS,01-711-1226,1,SCREEN FAILURE,SCREEN FAILURE,DISPOSITION EVENT,1,SCREENING 1,2013-10-24,2013-10-24,NA
CDISCPILOT01,DS,01-711-1251,1,SCREEN FAILURE,SCREEN FAILURE,DISPOSITION EVENT,1,SCREENING 1,2014-02-28,2014-02-28,NA
CDISCPILOT01,DS,01-711-1283,1,SCREEN FAILURE,SCREEN FAILURE,DISPOSITION EVENT,1,SCREENING 1,2014-03-27,2014-03-27,NA
CDISCPILOT01,DS,01-711-1284,1,SCREEN FAILURE,SCREEN FAILURE,DISPOSITION EVENT,1,SCREENING 1,2013-08-05,2013-08-05,NA
CDISCPILOT01,DS,01-711-1290,1,SCREEN FAILURE,SCREEN FAILURE,DISPOSITION EVENT,1,SCREENING 1,2013-12-20,2013-12-20,NA
CDISCPILOT01,DS,01-711-1433,1,RANDOMIZED,RANDOMIZED,PROTOCOL MILESTONE,3,BASELINE,2013-01-27,2013-01-27,1
CDISCPILOT01,DS,01-711-1433,2,ADVERSE EVENT,ADVERSE EVENT,DISPOSITION EVENT,4,WEEK 2,2013-02-06,2013-02-06,11
CDISCPILOT01,DS,01-711-1433,3,FINAL LAB VISIT,FINAL LAB VISIT,OTHER EVENT,4,WEEK 2,2013-02-06T10:52,2013-02-06,11
CDISCPILOT01,DS,01-713-1043,1,RANDOMIZED,RANDOMIZED,PROTOCOL MILESTONE,3,BASELINE,2013-09-15,2013-09-15,1
CDISCPILOT01,DS,01-713-1043,2,PROTOCOL COMPLETED,COMPLETED,DISPOSITION EVENT,13,WEEK 26,2014-03-24,2014-03-24,191
CDISCPILOT01,DS,01-713-1043,3,FINAL LAB VISIT,FINAL LAB VISIT,OTHER EVENT,13,WEEK 26,2014-03-24T14:30,2014-03-24,191
CDISCPILOT01,DS,01-713-1073,1,RANDOMIZED,RANDOMIZED,PROTOCOL MILESTONE,3,BASELINE,2014-03-30,2014-03-30,1
CDISCPILOT01,DS,01-713-1073,2,PROTOCOL COMPLETED,COMPLETED,DISPOSITION EVENT,13,WEEK 26,2014-10-05,2014-10-05,190
CDISCPILOT01,DS,01-713-1073,3,FINAL LAB VISIT,FINAL LAB VISIT,OTHER EVENT,13,WEEK 26,2014-10-05T10:30,2014-10-05,190
CDISCPILOT01,DS,01-713-1106,1,RANDOMIZED,RANDOMIZED,PROTOCOL MILESTONE,3,BASELINE,2012-10-31,2012-10-31,1
CDISCPILOT01,DS,01-713-1106,2,PROTOCOL COMPLETED,COMPLETED,DISPOSITION EVENT,13,WEEK 26,2013-05-06,2013-05-06,188
CDISCPILOT01,DS,01-713-1106,3,FINAL LAB VISIT,FINAL LAB VISIT,OTHER EVENT,13,WEEK 26,2013-05-06T11:25,2013-05-06,188
CDISCPILOT01,DS,01-713-1141,1,RANDOMIZED,RANDOMIZED,PROTOCOL MILESTONE,3,BASELINE,2013-05-31,2013-05-31,1
CDISCPILOT01,DS,01-713-1141,2,ADVERSE EVENT,ADVERSE EVENT,DISPOSITION EVENT,7,WEEK 6,2013-08-06,2013-08-06,68
CDISCPILOT01,DS,01-713-1141,3,FINAL LAB VISIT,FINAL LAB VISIT,OTHER EVENT,7,WEEK 6,2013-08-06T12:00,2013-08-06,68
CDISCPILOT01,DS,01-713-1179,1,RANDOMIZED,RANDOMIZED,PROTOCOL MILESTONE,3,BASELINE,2013-08-09,2013-08-09,1
CDISCPILOT01,DS,01-713-1179,2,PROTOCOL COMPLETED,COMPLETED,DISPOSITION EVENT,13,WEEK 26,2014-02-05,2014-02-05,181
CDISCPILOT01,DS,01-713-1179,3,FINAL LAB VISIT,FINAL LAB VISIT,OTHER EVENT,13,WEEK 26,2014-02-05T15:15,2014-02-05,181
CDISCPILOT01,DS,01-713-1209,1,RANDOMIZED,RANDOMIZED,PROTOCOL MILESTONE,3,BASELINE,2013-05-27,2013-05-27,1
CDISCPILOT01,DS,01-713-1209,2,PROTOCOL COMPLETED,COMPLETED,DISPOSITION EVENT,13,WEEK 26,2013-11-22,2013-11-22,180
CDISCPILOT01,DS,01-713-1209,3,FINAL LAB VISIT,FINAL LAB VISIT,OTHER EVENT,13,WEEK 26,2013-11-22T10:05,2013-11-22,180
CDISCPILOT01,DS,01-713-1256,1,RANDOMIZED,RANDOMIZED,PROTOCOL MILESTONE,3,BASELINE,2012-09-19,2012-09-19,1
CDISCPILOT01,DS,01-713-1256,2,PROTOCOL COMPLETED,COMPLETED,DISPOSITION EVENT,13,WEEK 26,2013-03-25,2013-03-25,188
CDISCPILOT01,DS,01-713-1256,3,FINAL LAB VISIT,FINAL LAB VISIT,OTHER EVENT,13,WEEK 26,2013-03-25T10:30,2013-03-25,188
CDISCPILOT01,DS,01-713-1269,1,RANDOMIZED,RANDOMIZED,PROTOCOL MILESTONE,3,BASELINE,2014-01-27,2014-01-27,1
CDISCPILOT01,DS,01-713-1269,2,PROTOCOL COMPLETED,COMPLETED,DISPOSITION EVENT,13,WEEK 26,2014-07-28,2014-07-28,183
CDISCPILOT01,DS,01-713-1269,3,FINAL LAB VISIT,FINAL LAB VISIT,OTHER EVENT,13,WEEK 26,2014-07-28T14:00,2014-07-28,183
CDISCPILOT01,DS,01-713-1448,1,RANDOMIZED,RANDOMIZED,PROTOCOL MILESTONE,3,BASELINE,2014-01-19,2014-01-19,1
CDISCPILOT01,DS,01-713-1448,2,ADVERSE EVENT,ADVERSE EVENT,DISPOSITION EVENT,10,WEEK 16,2014-05-17,2014-05-17,119
CDISCPILOT01,DS,01-713-1448,3,FINAL LAB VISIT,FINAL LAB VISIT,OTHER EVENT,10,WEEK 16,2014-05-17T11:00,2014-05-17,119
CDISCPILOT01,DS,01-713-1448,4,FINAL RETRIEVAL VISIT,FINAL RETRIEVAL VISIT,OTHER EVENT,201,RETRIEVAL,2014-07-27,2014-07-27,190
CDISCPILOT01,DS,01-714-1035,1,RANDOMIZED,RANDOMIZED,PROTOCOL MILESTONE,3,BASELINE,2014-04-17,2014-04-17,1
CDISCPILOT01,DS,01-714-1035,2,PROTOCOL COMPLETED,COMPLETED,DISPOSITION EVENT,13,WEEK 26,2014-10-16,2014-10-16,183
CDISCPILOT01,DS,01-714-1035,3,FINAL LAB VISIT,FINAL LAB VISIT,OTHER EVENT,13,WEEK 26,2014-10-16T12:00,2014-10-16,183
CDISCPILOT01,DS,01-714-1068,1,RANDOMIZED,RANDOMIZED,PROTOCOL MILESTONE,3,BASELINE,2013-08-08,2013-08-08,1
CDISCPILOT01,DS,01-714-1068,2,ADVERSE EVENT,ADVERSE EVENT,DISPOSITION EVENT,9,WEEK 12,2013-10-16,2013-10-16,70
CDISCPILOT01,DS,01-714-1068,3,FINAL LAB VISIT,FINAL LAB VISIT,OTHER EVENT,9,WEEK 12,2013-10-16T15:10,2013-10-16,70
CDISCPILOT01,DS,01-714-1195,1,RANDOMIZED,RANDOMIZED,PROTOCOL MILESTONE,3,BASELINE,2013-04-26,2013-04-26,1
CDISCPILOT01,DS,01-714-1195,2,PROTOCOL COMPLETED,COMPLETED,DISPOSITION EVENT,13,WEEK 26,2013-10-23,2013-10-23,181
CDISCPILOT01,DS,01-714-1195,3,FINAL LAB VISIT,FINAL LAB VISIT,OTHER EVENT,13,WEEK 26,2013-10-23T10:55,2013-10-23,181
CDISCPILOT01,DS,01-714-1288,1,RANDOMIZED,RANDOMIZED,PROTOCOL MILESTONE,3,BASELINE,2013-12-04,2013-12-04,1
CDISCPILOT01,DS,01-714-1288,2,PROTOCOL COMPLETED,COMPLETED,DISPOSITION EVENT,13,WEEK 26,2014-06-17,2014-06-17,196
CDISCPILOT01,DS,01-714-1288,3,FINAL LAB VISIT,FINAL LAB VISIT,OTHER EVENT,13,WEEK 26,2014-06-17T13:00,2014-06-17,196
CDISCPILOT01,DS,01-714-1375,1,RANDOMIZED,RANDOMIZED,PROTOCOL MILESTONE,3,BASELINE,2013-02-26,2013-02-26,1
CDISCPILOT01,DS,01-714-1375,2,PROTOCOL COMPLETED,COMPLETED,DISPOSITION EVENT,13,WEEK 26,2013-09-07,2013-09-07,194
CDISCPILOT01,DS,01-714-1375,3,FINAL LAB VISIT,FINAL LAB VISIT,OTHER EVENT,13,WEEK 26,2013-09-07T13:58,2013-09-07,194
CDISCPILOT01,DS,01-714-1425,1,RANDOMIZED,RANDOMIZED,PROTOCOL MILESTONE,3,BASELINE,2013-08-15,2013-08-15,1
CDISCPILOT01,DS,01-714-1425,2,SPONSOR DECISION (STUDY OR PATIENT DISCONTINUED BY THE SPONSOR),STUDY TERMINATED BY SPONSOR,DISPOSITION EVENT,4,WEEK 2,2013-08-22,2013-08-22,8
CDISCPILOT01,DS,01-714-1425,3,FINAL LAB VISIT,FINAL LAB VISIT,OTHER EVENT,4,WEEK 2,2013-08-22T14:55,2013-08-22,8
CDISCPILOT01,DS,01-715-1085,1,RANDOMIZED,RANDOMIZED,PROTOCOL MILESTONE,3,BASELINE,2013-02-16,2013-02-16,1
CDISCPILOT01,DS,01-715-1085,2,PROTOCOL COMPLETED,COMPLETED,DISPOSITION EVENT,13,WEEK 26,2013-08-18,2013-08-18,184
CDISCPILOT01,DS,01-715-1085,3,FINAL LAB VISIT,FINAL LAB VISIT,OTHER EVENT,13,WEEK 26,2013-08-18T10:22,2013-08-18,184
CDISCPILOT01,DS,01-715-1107,1,RANDOMIZED,RANDOMIZED,PROTOCOL MILESTONE,3,BASELINE,2013-02-26,2013-02-26,1
CDISCPILOT01,DS,01-715-1107,2,ADVERSE EVENT,ADVERSE EVENT,DISPOSITION EVENT,9,WEEK 12,2013-05-13,2013-05-13,77
CDISCPILOT01,DS,01-715-1107,3,FINAL LAB VISIT,FINAL LAB VISIT,OTHER EVENT,201,RETRIEVAL,2013-08-14T09:52,2013-08-14,170
CDISCPILOT01,DS,01-715-1107,4,FINAL RETRIEVAL VISIT,FINAL RETRIEVAL VISIT,OTHER EVENT,201,RETRIEVAL,2013-08-14,2013-08-14,170
CDISCPILOT01,DS,01-715-1134,1,SCREEN FAILURE,SCREEN FAILURE,DISPOSITION EVENT,1,SCREENING 1,2014-04-17,2014-04-17,NA
CDISCPILOT01,DS,01-715-1155,1,RANDOMIZED,RANDOMIZED,PROTOCOL MILESTONE,3,BASELINE,2013-12-13,2013-12-13,1
CDISCPILOT01,DS,01-715-1155,2,FINAL LAB VISIT,FINAL LAB VISIT,OTHER EVENT,5,WEEK 4,2014-01-10T08:45,2014-01-10,29
CDISCPILOT01,DS,01-715-1155,3,CAREGIVER WITHDREW FROM STUDY,WITHDRAWAL BY SUBJECT,DISPOSITION EVENT,7,WEEK 6,2014-04-26,2014-04-26,135
CDISCPILOT01,DS,01-715-1207,1,RANDOMIZED,RANDOMIZED,PROTOCOL MILESTONE,3,BASELINE,2012-11-18,2012-11-18,1
CDISCPILOT01,DS,01-715-1207,2,PROTOCOL COMPLETED,COMPLETED,DISPOSITION EVENT,13,WEEK 26,2013-06-01,2013-06-01,196
CDISCPILOT01,DS,01-715-1207,3,FINAL LAB VISIT,FINAL LAB VISIT,OTHER EVENT,13,WEEK 26,2013-06-01T09:30,2013-06-01,196
CDISCPILOT01,DS,01-715-1225,1,SCREEN FAILURE,SCREEN FAILURE,DISPOSITION EVENT,1,SCREENING 1,2013-01-22,2013-01-22,NA
CDISCPILOT01,DS,01-715-1319,1,RANDOMIZED,RANDOMIZED,PROTOCOL MILESTONE,3,BASELINE,2013-02-17,2013-02-17,1
CDISCPILOT01,DS,01-715-1319,2,TOO MUCH TROUBLE FOR CAREGIVER,WITHDRAWAL BY SUBJECT,DISPOSITION EVENT,5,WEEK 4,2013-03-18,2013-03-18,30
CDISCPILOT01,DS,01-715-1319,3,FINAL LAB VISIT,FINAL LAB VISIT,OTHER EVENT,5,WEEK 4,2013-03-18T10:28,2013-03-18,30
CDISCPILOT01,DS,01-715-1321,1,RANDOMIZED,RANDOMIZED,PROTOCOL MILESTONE,3,BASELINE,2014-02-11,2014-02-11,1
CDISCPILOT01,DS,01-715-1321,2,ADVERSE EVENT,ADVERSE EVENT,DISPOSITION EVENT,9,WEEK 12,2014-04-22,2014-04-22,71
CDISCPILOT01,DS,01-715-1321,3,FINAL LAB VISIT,FINAL LAB VISIT,OTHER EVENT,9,WEEK 12,2014-04-22T11:12,2014-04-22,71
CDISCPILOT01,DS,01-715-1333,1,SCREEN FAILURE,SCREEN FAILURE,DISPOSITION EVENT,1,SCREENING 1,2013-06-03,2013-06-03,NA
CDISCPILOT01,DS,01-715-1397,1,RANDOMIZED,RANDOMIZED,PROTOCOL MILESTONE,3,BASELINE,2013-04-03,2013-04-03,1
CDISCPILOT01,DS,01-715-1397,2,PROTOCOL COMPLETED,COMPLETED,DISPOSITION EVENT,13,WEEK 26,2013-10-03,2013-10-03,184
CDISCPILOT01,DS,01-715-1397,3,FINAL LAB VISIT,FINAL LAB VISIT,OTHER EVENT,13,WEEK 26,2013-10-03T10:50,2013-10-03,184
CDISCPILOT01,DS,01-715-1405,1,RANDOMIZED,RANDOMIZED,PROTOCOL MILESTONE,3,BASELINE,2013-07-06,2013-07-06,1
CDISCPILOT01,DS,01-715-1405,2,ADVERSE EVENT,ADVERSE EVENT,DISPOSITION EVENT,4,WEEK 2,2013-07-13,2013-07-13,8
CDISCPILOT01,DS,01-715-1405,3,FINAL LAB VISIT,FINAL LAB VISIT,OTHER EVENT,4,WEEK 2,2013-07-13T11:05,2013-07-13,8
CDISCPILOT01,DS,01-715-1405,4,FINAL RETRIEVAL VISIT,FINAL RETRIEVAL VISIT,OTHER EVENT,201,RETRIEVAL,2014-01-11,2014-01-11,190
CDISCPILOT01,DS,01-715-1407,1,SCREEN FAILURE,SCREEN FAILURE,DISPOSITION EVENT,1,SCREENING 1,2012-10-24,2012-10-24,NA
CDISCPILOT01,DS,01-716-1003,1,SCREEN FAILURE,SCREEN FAILURE,DISPOSITION EVENT,1,SCREENING 1,2014-03-29,2014-03-29,NA
CDISCPILOT01,DS,01-716-1024,1,RANDOMIZED,RANDOMIZED,PROTOCOL MILESTONE,3,BASELINE,2012-07-09,2012-07-09,1
CDISCPILOT01,DS,01-716-1024,2,PROTOCOL COMPLETED,COMPLETED,DISPOSITION EVENT,13,WEEK 26,2013-01-20,2013-01-20,196
CDISCPILOT01,DS,01-716-1024,3,FINAL LAB VISIT,FINAL LAB VISIT,OTHER EVENT,13,WEEK 26,2013-01-20T11:10,2013-01-20,196
CDISCPILOT01,DS,01-716-1026,1,RANDOMIZED,RANDOMIZED,PROTOCOL MILESTONE,3,BASELINE,2014-04-02,2014-04-02,1
CDISCPILOT01,DS,01-716-1026,2,PROTOCOL COMPLETED,COMPLETED,DISPOSITION EVENT,13,WEEK 26,2014-10-16,2014-10-16,198
CDISCPILOT01,DS,01-716-1026,3,FINAL LAB VISIT,FINAL LAB VISIT,OTHER EVENT,13,WEEK 26,2014-10-16T13:35,2014-10-16,198
CDISCPILOT01,DS,01-716-1030,1,RANDOMIZED,RANDOMIZED,PROTOCOL MILESTONE,3,BASELINE,2013-12-28,2013-12-28,1
CDISCPILOT01,DS,01-716-1030,2,PT KEPT REMOVING PATCHES,WITHDRAWAL BY SUBJECT,DISPOSITION EVENT,4,WEEK 2,2014-01-10,2014-01-10,14
CDISCPILOT01,DS,01-716-1030,3,FINAL LAB VISIT,FINAL LAB VISIT,OTHER EVENT,4,WEEK 2,2014-01-10T12:30,2014-01-10,14
CDISCPILOT01,DS,01-716-1044,1,RANDOMIZED,RANDOMIZED,PROTOCOL MILESTONE,3,BASELINE,2013-04-27,2013-04-27,1
CDISCPILOT01,DS,01-716-1044,2,PROTOCOL COMPLETED,COMPLETED,DISPOSITION EVENT,13,WEEK 26,2013-11-03,2013-11-03,191
CDISCPILOT01,DS,01-716-1044,3,FINAL LAB VISIT,FINAL LAB VISIT,OTHER EVENT,13,WEEK 26,2013-11-03T13:10,2013-11-03,191
CDISCPILOT01,DS,01-716-1061,1,SCREEN FAILURE,SCREEN FAILURE,DISPOSITION EVENT,1,SCREENING 1,2014-02-14,2014-02-14,NA
CDISCPILOT01,DS,01-716-1063,1,RANDOMIZED,RANDOMIZED,PROTOCOL MILESTONE,3,BASELINE,2013-05-09,2013-05-09,1
CDISCPILOT01,DS,01-716-1063,2,ADVERSE EVENT,ADVERSE EVENT,DISPOSITION EVENT,10,WEEK 16,2013-08-28,2013-08-28,112
CDISCPILOT01,DS,01-716-1063,3,FINAL LAB VISIT,FINAL LAB VISIT,OTHER EVENT,10,WEEK 16,2013-08-28T15:20,2013-08-28,112
CDISCPILOT01,DS,01-716-1063,4,FINAL RETRIEVAL VISIT,FINAL RETRIEVAL VISIT,OTHER EVENT,201,RETRIEVAL,2013-11-17,2013-11-17,193
CDISCPILOT01,DS,01-716-1071,1,RANDOMIZED,RANDOMIZED,PROTOCOL MILESTONE,3,BASELINE,2013-06-08,2013-06-08,1
CDISCPILOT01,DS,01-716-1071,2,ADVERSE EVENT,ADVERSE EVENT,DISPOSITION EVENT,8,WEEK 8,2013-08-01,2013-08-01,55
CDISCPILOT01,DS,01-716-1071,3,FINAL LAB VISIT,FINAL LAB VISIT,OTHER EVENT,8,WEEK 8,2013-08-01T09:30,2013-08-01,55
CDISCPILOT01,DS,01-716-1071,4,FINAL RETRIEVAL VISIT,FINAL RETRIEVAL VISIT,OTHER EVENT,201,RETRIEVAL,2013-12-16,2013-12-16,192
CDISCPILOT01,DS,01-716-1094,1,RANDOMIZED,RANDOMIZED,PROTOCOL MILESTONE,3,BASELINE,2012-12-19,2012-12-19,1
CDISCPILOT01,DS,01-716-1094,2,ADVERSE EVENT,ADVERSE EVENT,DISPOSITION EVENT,7,WEEK 6,2013-01-26,2013-01-26,39
CDISCPILOT01,DS,01-716-1094,3,FINAL LAB VISIT,FINAL LAB VISIT,OTHER EVENT,7,WEEK 6,2013-01-26T11:20,2013-01-26,39
CDISCPILOT01,DS,01-716-1094,4,FINAL RETRIEVAL VISIT,FINAL RETRIEVAL VISIT,OTHER EVENT,201,RETRIEVAL,2013-06-22,2013-06-22,186
CDISCPILOT01,DS,01-716-1103,1,RANDOMIZED,RANDOMIZED,PROTOCOL MILESTONE,3,BASELINE,2014-03-20,2014-03-20,1
CDISCPILOT01,DS,01-716-1103,2,PROTOCOL COMPLETED,COMPLETED,DISPOSITION EVENT,13,WEEK 26,2014-09-20,2014-09-20,185
CDISCPILOT01,DS,01-716-1103,3,FINAL LAB VISIT,FINAL LAB VISIT,OTHER EVENT,13,WEEK 26,2014-09-20T12:10,2014-09-20,185
CDISCPILOT01,DS,01-716-1108,1,RANDOMIZED,RANDOMIZED,PROTOCOL MILESTONE,3,BASELINE,2013-02-12,2013-02-12,1
CDISCPILOT01,DS,01-716-1108,2,PROTOCOL COMPLETED,COMPLETED,DISPOSITION EVENT,13,WEEK 26,2013-08-10,2013-08-10,180
CDISCPILOT01,DS,01-716-1108,3,FINAL LAB VISIT,FINAL LAB VISIT,OTHER EVENT,13,WEEK 26,2013-08-10T09:55,2013-08-10,180
CDISCPILOT01,DS,01-716-1151,1,RANDOMIZED,RANDOMIZED,PROTOCOL MILESTONE,3,BASELINE,2013-02-01,2013-02-01,1
CDISCPILOT01,DS,01-716-1151,2,ADVERSE EVENT,ADVERSE EVENT,DISPOSITION EVENT,10,WEEK 16,2013-06-07,2013-06-07,127
CDISCPILOT01,DS,01-716-1151,3,FINAL LAB VISIT,FINAL LAB VISIT,OTHER EVENT,10,WEEK 16,2013-06-07T11:55,2013-06-07,127
CDISCPILOT01,DS,01-716-1151,4,FINAL RETRIEVAL VISIT,FINAL RETRIEVAL VISIT,OTHER EVENT,201,RETRIEVAL,2013-08-13,2013-08-13,194
CDISCPILOT01,DS,01-716-1157,1,RANDOMIZED,RANDOMIZED,PROTOCOL MILESTONE,3,BASELINE,2013-10-02,2013-10-02,1
CDISCPILOT01,DS,01-716-1157,2,PROTOCOL COMPLETED,COMPLETED,DISPOSITION EVENT,13,WEEK 26,2014-04-05,2014-04-05,186
CDISCPILOT01,DS,01-716-1157,3,FINAL LAB VISIT,FINAL LAB VISIT,OTHER EVENT,13,WEEK 26,2014-04-05T11:10,2014-04-05,186
CDISCPILOT01,DS,01-716-1160,1,RANDOMIZED,RANDOMIZED,PROTOCOL MILESTONE,3,BASELINE,2013-04-05,2013-04-05,1
CDISCPILOT01,DS,01-716-1160,2,PROTOCOL COMPLETED,COMPLETED,DISPOSITION EVENT,13,WEEK 26,2013-10-11,2013-10-11,190
CDISCPILOT01,DS,01-716-1160,3,FINAL LAB VISIT,FINAL LAB VISIT,OTHER EVENT,13,WEEK 26,2013-10-11T13:30,2013-10-11,190
CDISCPILOT01,DS,01-716-1167,1,RANDOMIZED,RANDOMIZED,PROTOCOL MILESTONE,3,BASELINE,2012-10-08,2012-10-08,1
CDISCPILOT01,DS,01-716-1167,2,PROTOCOL COMPLETED,COMPLETED,DISPOSITION EVENT,13,WEEK 26,2013-04-13,2013-04-13,188
CDISCPILOT01,DS,01-716-1167,3,FINAL LAB VISIT,FINAL LAB VISIT,OTHER EVENT,13,WEEK 26,2013-04-13T11:10,2013-04-13,188
CDISCPILOT01,DS,01-716-1177,1,RANDOMIZED,RANDOMIZED,PROTOCOL MILESTONE,3,BASELINE,2014-09-02,2014-09-02,1
CDISCPILOT01,DS,01-716-1177,2,PROTOCOL COMPLETED,COMPLETED,DISPOSITION EVENT,13,WEEK 26,2015-03-05,2015-03-05,185
CDISCPILOT01,DS,01-716-1177,3,FINAL LAB VISIT,FINAL LAB VISIT,OTHER EVENT,13,WEEK 26,2015-03-05T14:40,2015-03-05,185
CDISCPILOT01,DS,01-716-1189,1,RANDOMIZED,RANDOMIZED,PROTOCOL MILESTONE,3,BASELINE,2012-10-09,2012-10-09,1
CDISCPILOT01,DS,01-716-1189,2,ADVERSE EVENT,ADVERSE EVENT,DISPOSITION EVENT,11,WEEK 20,2013-03-03,2013-03-03,146
CDISCPILOT01,DS,01-716-1189,3,FINAL LAB VISIT,FINAL LAB VISIT,OTHER EVENT,11,WEEK 20,2013-03-03T10:45,2013-03-03,146
CDISCPILOT01,DS,01-716-1189,4,FINAL RETRIEVAL VISIT,FINAL RETRIEVAL VISIT,OTHER EVENT,201,RETRIEVAL,2013-04-08,2013-04-08,182
CDISCPILOT01,DS,01-716-1229,1,RANDOMIZED,RANDOMIZED,PROTOCOL MILESTONE,3,BASELINE,2013-02-20,2013-02-20,1
CDISCPILOT01,DS,01-716-1229,2,ADVERSE EVENT,ADVERSE EVENT,DISPOSITION EVENT,7,WEEK 6,2013-04-02,2013-04-02,42
CDISCPILOT01,DS,01-716-1229,3,FINAL LAB VISIT,FINAL LAB VISIT,OTHER EVENT,7,WEEK 6,2013-04-02T11:15,2013-04-02,42
CDISCPILOT01,DS,01-716-1244,1,SCREEN FAILURE,SCREEN FAILURE,DISPOSITION EVENT,1,SCREENING 1,2013-08-15,2013-08-15,NA
CDISCPILOT01,DS,01-716-1298,1,RANDOMIZED,RANDOMIZED,PROTOCOL MILESTONE,3,BASELINE,2013-04-08,2013-04-08,1
CDISCPILOT01,DS,01-716-1298,2,ADVERSE EVENT,ADVERSE EVENT,DISPOSITION EVENT,9,WEEK 12,2013-07-06,2013-07-06,90
CDISCPILOT01,DS,01-716-1298,3,FINAL LAB VISIT,FINAL LAB VISIT,OTHER EVENT,9,WEEK 12,2013-07-06T10:30,2013-07-06,90
CDISCPILOT01,DS,01-716-1298,4,FINAL RETRIEVAL VISIT,FINAL RETRIEVAL VISIT,OTHER EVENT,201,RETRIEVAL,2013-10-07,2013-10-07,183
CDISCPILOT01,DS,01-716-1305,1,SCREEN FAILURE,SCREEN FAILURE,DISPOSITION EVENT,1,SCREENING 1,2013-08-06,2013-08-06,NA
CDISCPILOT01,DS,01-716-1308,1,RANDOMIZED,RANDOMIZED,PROTOCOL MILESTONE,3,BASELINE,2013-08-28,2013-08-28,1
CDISCPILOT01,DS,01-716-1308,2,PLACED IN NURSING HOME,WITHDRAWAL BY SUBJECT,DISPOSITION EVENT,7,WEEK 6,2013-10-07,2013-10-07,41
CDISCPILOT01,DS,01-716-1308,3,FINAL LAB VISIT,FINAL LAB VISIT,OTHER EVENT,7,WEEK 6,2013-10-07T15:50,2013-10-07,41
CDISCPILOT01,DS,01-716-1311,1,RANDOMIZED,RANDOMIZED,PROTOCOL MILESTONE,3,BASELINE,2014-05-14,2014-05-14,1
CDISCPILOT01,DS,01-716-1311,2,INSTITUTIONALIZED,WITHDRAWAL BY SUBJECT,DISPOSITION EVENT,11,WEEK 20,2014-09-30,2014-09-30,140
CDISCPILOT01,DS,01-716-1311,3,FINAL LAB VISIT,FINAL LAB VISIT,OTHER EVENT,11,WEEK 20,2014-09-30T09:00,2014-09-30,140
CDISCPILOT01,DS,01-716-1311,4,FINAL RETRIEVAL VISIT,FINAL RETRIEVAL VISIT,OTHER EVENT,201,RETRIEVAL,2014-11-15,2014-11-15,186
CDISCPILOT01,DS,01-716-1331,1,SCREEN FAILURE,SCREEN FAILURE,DISPOSITION EVENT,1,SCREENING 1,2013-11-25,2013-11-25,NA
CDISCPILOT01,DS,01-716-1364,1,RANDOMIZED,RANDOMIZED,PROTOCOL MILESTONE,3,BASELINE,2013-07-04,2013-07-04,1
CDISCPILOT01,DS,01-716-1364,2,PROTOCOL COMPLETED,COMPLETED,DISPOSITION EVENT,13,WEEK 26,2014-01-09,2014-01-09,190
CDISCPILOT01,DS,01-716-1364,3,FINAL LAB VISIT,FINAL LAB VISIT,OTHER EVENT,13,WEEK 26,2014-01-09T15:30,2014-01-09,190
CDISCPILOT01,DS,01-716-1373,1,RANDOMIZED,RANDOMIZED,PROTOCOL MILESTONE,3,BASELINE,2012-12-14,2012-12-14,1
CDISCPILOT01,DS,01-716-1373,2,ADVERSE EVENT,ADVERSE EVENT,DISPOSITION EVENT,9,WEEK 12,2013-02-28,2013-02-28,77
CDISCPILOT01,DS,01-716-1373,3,FINAL LAB VISIT,FINAL LAB VISIT,OTHER EVENT,9,WEEK 12,2013-02-28T10:23,2013-02-28,77
CDISCPILOT01,DS,01-716-1418,1,RANDOMIZED,RANDOMIZED,PROTOCOL MILESTONE,3,BASELINE,2013-05-05,2013-05-05,1
CDISCPILOT01,DS,01-716-1418,2,PROTOCOL COMPLETED,COMPLETED,DISPOSITION EVENT,13,WEEK 26,2013-11-20,2013-11-20,200
CDISCPILOT01,DS,01-716-1418,3,FINAL LAB VISIT,FINAL LAB VISIT,OTHER EVENT,13,WEEK 26,2013-11-20T11:44,2013-11-20,200
CDISCPILOT01,DS,01-716-1441,1,RANDOMIZED,RANDOMIZED,PROTOCOL MILESTONE,3,BASELINE,2014-01-22,2014-01-22,1
CDISCPILOT01,DS,01-716-1441,2,PROTOCOL COMPLETED,COMPLETED,DISPOSITION EVENT,13,WEEK 26,2014-07-22,2014-07-22,182
CDISCPILOT01,DS,01-716-1441,3,FINAL LAB VISIT,FINAL LAB VISIT,OTHER EVENT,13,WEEK 26,2014-07-22T10:00,2014-07-22,182
CDISCPILOT01,DS,01-716-1447,1,RANDOMIZED,RANDOMIZED,PROTOCOL MILESTONE,3,BASELINE,2013-12-16,2013-12-16,1
CDISCPILOT01,DS,01-716-1447,2,PROTOCOL COMPLETED,COMPLETED,DISPOSITION EVENT,13,WEEK 26,2014-06-17,2014-06-17,184
CDISCPILOT01,DS,01-716-1447,3,FINAL LAB VISIT,FINAL LAB VISIT,OTHER EVENT,13,WEEK 26,2014-06-17T12:00,2014-06-17,184
CDISCPILOT01,DS,01-717-1004,1,RANDOMIZED,RANDOMIZED,PROTOCOL MILESTONE,3,BASELINE,2014-01-14,2014-01-14,1
CDISCPILOT01,DS,01-717-1004,2,PROTOCOL COMPLETED,COMPLETED,DISPOSITION EVENT,13,WEEK 26,2014-07-16,2014-07-16,184
CDISCPILOT01,DS,01-717-1004,3,FINAL LAB VISIT,FINAL LAB VISIT,OTHER EVENT,13,WEEK 26,2014-07-16T13:21,2014-07-16,184
CDISCPILOT01,DS,01-717-1109,1,RANDOMIZED,RANDOMIZED,PROTOCOL MILESTONE,3,BASELINE,2014-01-27,2014-01-27,1
CDISCPILOT01,DS,01-717-1109,2,PROTOCOL COMPLETED,COMPLETED,DISPOSITION EVENT,13,WEEK 26,2014-07-28,2014-07-28,183
CDISCPILOT01,DS,01-717-1109,3,FINAL LAB VISIT,FINAL LAB VISIT,OTHER EVENT,13,WEEK 26,2014-07-28T10:53,2014-07-28,183
CDISCPILOT01,DS,01-717-1174,1,RANDOMIZED,RANDOMIZED,PROTOCOL MILESTONE,3,BASELINE,2013-01-22,2013-01-22,1
CDISCPILOT01,DS,01-717-1174,2,PROTOCOL COMPLETED,COMPLETED,DISPOSITION EVENT,13,WEEK 26,2013-07-24,2013-07-24,184
CDISCPILOT01,DS,01-717-1174,3,FINAL LAB VISIT,FINAL LAB VISIT,OTHER EVENT,13,WEEK 26,2013-07-24T15:15,2013-07-24,184
CDISCPILOT01,DS,01-717-1201,1,RANDOMIZED,RANDOMIZED,PROTOCOL MILESTONE,3,BASELINE,2013-12-19,2013-12-19,1
CDISCPILOT01,DS,01-717-1201,2,"LACK OF EFFICACY, PATIENT CAREGIVER PERCEPTION",LACK OF EFFICACY,DISPOSITION EVENT,8,WEEK 8,2014-02-21,2014-02-21,65
CDISCPILOT01,DS,01-717-1201,3,FINAL LAB VISIT,FINAL LAB VISIT,OTHER EVENT,8,WEEK 8,2014-02-21T11:14,2014-02-21,65
CDISCPILOT01,DS,01-717-1344,1,RANDOMIZED,RANDOMIZED,PROTOCOL MILESTONE,3,BASELINE,2014-01-11,2014-01-11,1
CDISCPILOT01,DS,01-717-1344,2,"LACK OF EFFICACY, PATIENT CAREGIVER PERCEPTION",LACK OF EFFICACY,DISPOSITION EVENT,8,WEEK 8,2014-03-14,2014-03-14,63
CDISCPILOT01,DS,01-717-1344,3,FINAL LAB VISIT,FINAL LAB VISIT,OTHER EVENT,8,WEEK 8,2014-03-14T14:14,2014-03-14,63
CDISCPILOT01,DS,01-717-1357,1,RANDOMIZED,RANDOMIZED,PROTOCOL MILESTONE,3,BASELINE,2013-05-01,2013-05-01,1
CDISCPILOT01,DS,01-717-1357,2,SPONSOR DECISION (STUDY OR PATIENT DISCONTINUED BY THE SPONSOR),STUDY TERMINATED BY SPONSOR,DISPOSITION EVENT,12,WEEK 24,2013-10-20,2013-10-20,173
CDISCPILOT01,DS,01-717-1357,3,FINAL LAB VISIT,FINAL LAB VISIT,OTHER EVENT,12,WEEK 24,2013-10-20T10:52,2013-10-20,173
CDISCPILOT01,DS,01-717-1446,1,RANDOMIZED,RANDOMIZED,PROTOCOL MILESTONE,3,BASELINE,2013-09-01,2013-09-01,1
CDISCPILOT01,DS,01-717-1446,2,PROTOCOL COMPLETED,COMPLETED,DISPOSITION EVENT,13,WEEK 26,2014-03-04,2014-03-04,185
CDISCPILOT01,DS,01-717-1446,3,FINAL LAB VISIT,FINAL LAB VISIT,OTHER EVENT,13.1,UNSCHEDULED 13.1,2014-03-17T09:52,2014-03-17,198
CDISCPILOT01,DS,01-718-1066,1,RANDOMIZED,RANDOMIZED,PROTOCOL MILESTONE,3,BASELINE,2013-07-07,2013-07-07,1
CDISCPILOT01,DS,01-718-1066,2,ADVERSE EVENT,ADVERSE EVENT,DISPOSITION EVENT,4,WEEK 2,2013-07-30,2013-07-30,24
CDISCPILOT01,DS,01-718-1066,3,FINAL LAB VISIT,FINAL LAB VISIT,OTHER EVENT,4,WEEK 2,2013-07-30T13:30,2013-07-30,24
CDISCPILOT01,DS,01-718-1079,1,RANDOMIZED,RANDOMIZED,PROTOCOL MILESTONE,3,BASELINE,2012-09-19,2012-09-19,1
CDISCPILOT01,DS,01-718-1079,2,FINAL LAB VISIT,FINAL LAB VISIT,OTHER EVENT,7,WEEK 6,2012-10-31T16:30,2012-10-31,43
CDISCPILOT01,DS,01-718-1079,3,ADVERSE EVENT,ADVERSE EVENT,DISPOSITION EVENT,7,WEEK 6,2012-11-06,2012-11-06,49
CDISCPILOT01,DS,01-718-1079,4,FINAL RETRIEVAL VISIT,FINAL RETRIEVAL VISIT,OTHER EVENT,201,RETRIEVAL,2013-03-05,2013-03-05,168
CDISCPILOT01,DS,01-718-1101,1,RANDOMIZED,RANDOMIZED,PROTOCOL MILESTONE,3,BASELINE,2013-02-17,2013-02-17,1
CDISCPILOT01,DS,01-718-1101,2,SPONSOR DECISION (STUDY OR PATIENT DISCONTINUED BY THE SPONSOR),STUDY TERMINATED BY SPONSOR,DISPOSITION EVENT,12,WEEK 24,2013-08-02,2013-08-02,167
CDISCPILOT01,DS,01-718-1101,3,FINAL LAB VISIT,FINAL LAB VISIT,OTHER EVENT,12,WEEK 24,2013-08-02T11:30,2013-08-02,167
CDISCPILOT01,DS,01-718-1139,1,RANDOMIZED,RANDOMIZED,PROTOCOL MILESTONE,3,BASELINE,2013-05-19,2013-05-19,1
CDISCPILOT01,DS,01-718-1139,2,PROTOCOL COMPLETED,COMPLETED,DISPOSITION EVENT,13,WEEK 26,2013-11-17,2013-11-17,183
CDISCPILOT01,DS,01-718-1139,3,FINAL LAB VISIT,FINAL LAB VISIT,OTHER EVENT,13,WEEK 26,2013-11-17T10:30,2013-11-17,183
CDISCPILOT01,DS,01-718-1150,1,RANDOMIZED,RANDOMIZED,PROTOCOL MILESTONE,3,BASELINE,2013-01-19,2013-01-19,1
CDISCPILOT01,DS,01-718-1150,2,PROTOCOL COMPLETED,COMPLETED,DISPOSITION EVENT,13,WEEK 26,2013-07-31,2013-07-31,194
CDISCPILOT01,DS,01-718-1150,3,FINAL LAB VISIT,FINAL LAB VISIT,OTHER EVENT,13,WEEK 26,2013-07-31T14:05,2013-07-31,194
CDISCPILOT01,DS,01-718-1170,1,RANDOMIZED,RANDOMIZED,PROTOCOL MILESTONE,3,BASELINE,2013-09-16,2013-09-16,1
CDISCPILOT01,DS,01-718-1170,2,ADVERSE EVENT,ADVERSE EVENT,DISPOSITION EVENT,5,WEEK 4,2013-11-03,2013-11-03,49
CDISCPILOT01,DS,01-718-1170,3,FINAL LAB VISIT,FINAL LAB VISIT,OTHER EVENT,5,WEEK 4,2013-11-03T10:15,2013-11-03,49
CDISCPILOT01,DS,01-718-1170,4,FINAL RETRIEVAL VISIT,FINAL RETRIEVAL VISIT,OTHER EVENT,201,RETRIEVAL,2014-03-15,2014-03-15,181
CDISCPILOT01,DS,01-718-1172,1,RANDOMIZED,RANDOMIZED,PROTOCOL MILESTONE,3,BASELINE,2013-09-21,2013-09-21,1
CDISCPILOT01,DS,01-718-1172,2,PATIENT TO BEGIN COURSE OF ARICEPT,WITHDRAWAL BY SUBJECT,DISPOSITION EVENT,9,WEEK 12,2013-11-29,2013-11-29,70
CDISCPILOT01,DS,01-718-1172,3,FINAL LAB VISIT,FINAL LAB VISIT,OTHER EVENT,9,WEEK 12,2013-11-29T15:45,2013-11-29,70
CDISCPILOT01,DS,01-718-1172,4,FINAL RETRIEVAL VISIT,FINAL RETRIEVAL VISIT,OTHER EVENT,201,RETRIEVAL,2014-03-21,2014-03-21,182
CDISCPILOT01,DS,01-718-1250,1,RANDOMIZED,RANDOMIZED,PROTOCOL MILESTONE,3,BASELINE,2013-09-21,2013-09-21,1
CDISCPILOT01,DS,01-718-1250,2,ADVERSE EVENT,ADVERSE EVENT,DISPOSITION EVENT,11,WEEK 20,2014-02-08,2014-02-08,141
CDISCPILOT01,DS,01-718-1250,3,FINAL LAB VISIT,FINAL LAB VISIT,OTHER EVENT,11,WEEK 20,2014-02-08T09:30,2014-02-08,141
CDISCPILOT01,DS,01-718-1250,4,FINAL RETRIEVAL VISIT,FINAL RETRIEVAL VISIT,OTHER EVENT,201,RETRIEVAL,2014-03-08,2014-03-08,169
CDISCPILOT01,DS,01-718-1254,1,RANDOMIZED,RANDOMIZED,PROTOCOL MILESTONE,3,BASELINE,2013-07-10,2013-07-10,1
CDISCPILOT01,DS,01-718-1254,2,PROTOCOL COMPLETED,COMPLETED,DISPOSITION EVENT,13,WEEK 26,2014-01-09,2014-01-09,184
CDISCPILOT01,DS,01-718-1254,3,FINAL LAB VISIT,FINAL LAB VISIT,OTHER EVENT,13,WEEK 26,2014-01-09T11:10,2014-01-09,184
CDISCPILOT01,DS,01-718-1328,1,RANDOMIZED,RANDOMIZED,PROTOCOL MILESTONE,3,BASELINE,2013-02-01,2013-02-01,1
CDISCPILOT01,DS,01-718-1328,2,PATIENT UNABLE TO TOLERATE DERMAL IRRITATION AT PATCH SITE,WITHDRAWAL BY SUBJECT,DISPOSITION EVENT,9,WEEK 12,2013-05-01,2013-05-01,90
CDISCPILOT01,DS,01-718-1328,3,FINAL LAB VISIT,FINAL LAB VISIT,OTHER EVENT,9,WEEK 12,2013-05-01T15:15,2013-05-01,90
CDISCPILOT01,DS,01-718-1328,4,FINAL RETRIEVAL VISIT,FINAL RETRIEVAL VISIT,OTHER EVENT,201,RETRIEVAL,2013-07-24,2013-07-24,174
CDISCPILOT01,DS,01-718-1355,1,RANDOMIZED,RANDOMIZED,PROTOCOL MILESTONE,3,BASELINE,2013-02-28,2013-02-28,1
CDISCPILOT01,DS,01-718-1355,2,PROTOCOL COMPLETED,COMPLETED,DISPOSITION EVENT,13,WEEK 26,2013-08-29,2013-08-29,183
CDISCPILOT01,DS,01-718-1355,3,FINAL LAB VISIT,FINAL LAB VISIT,OTHER EVENT,13,WEEK 26,2013-08-29T14:00,2013-08-29,183
CDISCPILOT01,DS,01-718-1371,1,RANDOMIZED,RANDOMIZED,PROTOCOL MILESTONE,3,BASELINE,2013-04-26,2013-04-26,1
CDISCPILOT01,DS,01-718-1371,2,FINAL LAB VISIT,FINAL LAB VISIT,OTHER EVENT,9,WEEK 12,2013-08-01T14:55,2013-08-01,98
CDISCPILOT01,DS,01-718-1371,3,ADVERSE EVENT,ADVERSE EVENT,DISPOSITION EVENT,9,WEEK 12,2013-08-08,2013-08-08,105
CDISCPILOT01,DS,01-718-1427,1,RANDOMIZED,RANDOMIZED,PROTOCOL MILESTONE,3,BASELINE,2012-12-17,2012-12-17,1
CDISCPILOT01,DS,01-718-1427,2,"LACK OF EFFICACY, PATIENT CAREGIVER PERCEPTION",LACK OF EFFICACY,DISPOSITION EVENT,8,WEEK 8,2013-02-18,2013-02-18,64
CDISCPILOT01,DS,01-718-1427,3,FINAL LAB VISIT,FINAL LAB VISIT,OTHER EVENT,8.2,UNSCHEDULED 8.2,2013-02-18T12:30,2013-02-18,64
CDISCPILOT01,DS,01-718-1427,4,FINAL RETRIEVAL VISIT,FINAL RETRIEVAL VISIT,OTHER EVENT,201,RETRIEVAL,2013-06-03,2013-06-03,169
